consent_given,screeningQ1,screeningQ2,age,gender,startingValues,rewardVec,decay_rate,replenishRates,travel_duration,feedback_duration,blk_number,blk_type,meanRewardBlock,currentPatchPosition,patchValueLeft,patchValueTop,patchValueRight,patchReplenishLeft,patchReplenishTop,patchReplenishRight,currentPatchReplenishRate,patchValueSlow,patchValueMedium,patchValueFast,patchReplenishSlow,patchReplenishMedium,patchReplenishFast,decisionType,trialPhase,patch_selection_key,patch_selection_RT,actual_rew_gain,rew_fbk_displayed,blk_points,blk_actions,exploit_phase_key,exploit_phase_RT,num_exploit_actions,meanRewardEntireExperiment,total_points,total_actions,actions_remaining,timeInPatch_seconds_,task_instruc_resp_keys,task_instruc_resp_rt,trials_welcome_thisRepN,trials_welcome_thisTrialN,trials_welcome_thisN,trials_welcome_thisIndex,trials_welcome_ran,participant,session,date,expName,psychopyVersion,OS,frameRate,slider_response,slider_rt,trials_screening_thisRepN,trials_screening_thisTrialN,trials_screening_thisN,trials_screening_thisIndex,trials_screening_ran,demo_resp_keys,demo_resp_rt,trials_demographics_thisRepN,trials_demographics_thisTrialN,trials_demographics_thisN,trials_demographics_thisIndex,trials_demographics_ran,key_resp_keys,key_resp_rt,trials_instructions_thisRepN,trials_instructions_thisTrialN,trials_instructions_thisN,trials_instructions_thisIndex,trials_instructions_ran,rewardVectorToManipulate,blk_instruc_resp_keys,blk_instruc_resp_rt,blk_loop_thisRepN,blk_loop_thisTrialN,blk_loop_thisN,blk_loop_thisIndex,blk_loop_ran,blk_loop_order,trials_thisRepN,trials_thisTrialN,trials_thisN,trials_thisIndex,trials_ran,trials_order,sel_resp_keys,sel_resp_rt,exploit_loop_thisRepN,exploit_loop_thisTrialN,exploit_loop_thisN,exploit_loop_thisIndex,exploit_loop_ran,exploit_loop_order,exploit_resp_keys,exploit_resp_rt,post_blk_resp_keys,post_blk_resp_rt,closing_resp_keys,closing_resp_rt
0,0,0,0,0,"0",0,0,"0",0,0,0,0,0,0,0,0,0,0,0,0,0,0,0,0,0,0,0,0,0,0,0,0,0,0,0,0,0,0,0,NaN,NaN,NaN,0,space,4.863475,0,0,0,0,1,12,1,2020-11-10_09h26.05.454,Pirates_expt3,2020.1.2,MacIntel,60,NaN,NaN,NaN,NaN,NaN,NaN,NaN,,NaN,NaN,NaN,NaN,NaN,NaN,,NaN,NaN,NaN,NaN,NaN,NaN,"",,NaN,NaN,NaN,NaN,NaN,NaN,NaN,NaN,NaN,NaN,NaN,NaN,NaN,,NaN,NaN,NaN,NaN,NaN,NaN,NaN,,NaN,,NaN,,NaN
NaN,NaN,NaN,NaN,NaN,"",NaN,NaN,"",NaN,NaN,NaN,NaN,NaN,NaN,NaN,NaN,NaN,NaN,NaN,NaN,NaN,NaN,NaN,NaN,NaN,NaN,NaN,NaN,NaN,,NaN,NaN,NaN,NaN,NaN,,NaN,NaN,NaN,NaN,NaN,NaN,NaN,space,6.3568,1,0,1,0,1,12,1,2020-11-10_09h26.05.454,Pirates_expt3,2020.1.2,MacIntel,60,NaN,NaN,NaN,NaN,NaN,NaN,NaN,,NaN,NaN,NaN,NaN,NaN,NaN,,NaN,NaN,NaN,NaN,NaN,NaN,"",,NaN,NaN,NaN,NaN,NaN,NaN,NaN,NaN,NaN,NaN,NaN,NaN,NaN,,NaN,NaN,NaN,NaN,NaN,NaN,NaN,,NaN,,NaN,,NaN
NaN,NaN,NaN,NaN,NaN,"",NaN,NaN,"",NaN,NaN,NaN,NaN,NaN,NaN,NaN,NaN,NaN,NaN,NaN,NaN,NaN,NaN,NaN,NaN,NaN,NaN,NaN,NaN,NaN,,NaN,NaN,NaN,NaN,NaN,,NaN,NaN,NaN,NaN,NaN,NaN,NaN,space,48.234445,2,0,2,0,1,12,1,2020-11-10_09h26.05.454,Pirates_expt3,2020.1.2,MacIntel,60,NaN,NaN,NaN,NaN,NaN,NaN,NaN,,NaN,NaN,NaN,NaN,NaN,NaN,,NaN,NaN,NaN,NaN,NaN,NaN,"",,NaN,NaN,NaN,NaN,NaN,NaN,NaN,NaN,NaN,NaN,NaN,NaN,NaN,,NaN,NaN,NaN,NaN,NaN,NaN,NaN,,NaN,,NaN,,NaN
NaN,NaN,NaN,NaN,NaN,"",NaN,NaN,"",NaN,NaN,NaN,NaN,NaN,NaN,NaN,NaN,NaN,NaN,NaN,NaN,NaN,NaN,NaN,NaN,NaN,NaN,NaN,NaN,NaN,,NaN,NaN,NaN,NaN,NaN,,NaN,NaN,NaN,NaN,NaN,NaN,NaN,space,39.26148,3,0,3,0,1,12,1,2020-11-10_09h26.05.454,Pirates_expt3,2020.1.2,MacIntel,60,NaN,NaN,NaN,NaN,NaN,NaN,NaN,,NaN,NaN,NaN,NaN,NaN,NaN,,NaN,NaN,NaN,NaN,NaN,NaN,"",,NaN,NaN,NaN,NaN,NaN,NaN,NaN,NaN,NaN,NaN,NaN,NaN,NaN,,NaN,NaN,NaN,NaN,NaN,NaN,NaN,,NaN,,NaN,,NaN
NaN,NaN,NaN,NaN,NaN,"",NaN,NaN,"",NaN,NaN,NaN,NaN,NaN,NaN,NaN,NaN,NaN,NaN,NaN,NaN,NaN,NaN,NaN,NaN,NaN,NaN,NaN,NaN,NaN,,NaN,NaN,NaN,NaN,NaN,,NaN,NaN,NaN,NaN,NaN,NaN,NaN,space,5.49285,4,0,4,0,1,12,1,2020-11-10_09h26.05.454,Pirates_expt3,2020.1.2,MacIntel,60,NaN,NaN,NaN,NaN,NaN,NaN,NaN,,NaN,NaN,NaN,NaN,NaN,NaN,,NaN,NaN,NaN,NaN,NaN,NaN,"",,NaN,NaN,NaN,NaN,NaN,NaN,NaN,NaN,NaN,NaN,NaN,NaN,NaN,,NaN,NaN,NaN,NaN,NaN,NaN,NaN,,NaN,,NaN,,NaN
NaN,NaN,NaN,NaN,NaN,"",NaN,NaN,"",NaN,NaN,NaN,NaN,NaN,NaN,NaN,NaN,NaN,NaN,NaN,NaN,NaN,NaN,NaN,NaN,NaN,NaN,NaN,NaN,NaN,,NaN,NaN,NaN,NaN,NaN,,NaN,NaN,NaN,NaN,NaN,NaN,NaN,space,7.560215,5,0,5,0,1,12,1,2020-11-10_09h26.05.454,Pirates_expt3,2020.1.2,MacIntel,60,NaN,NaN,NaN,NaN,NaN,NaN,NaN,,NaN,NaN,NaN,NaN,NaN,NaN,,NaN,NaN,NaN,NaN,NaN,NaN,"",,NaN,NaN,NaN,NaN,NaN,NaN,NaN,NaN,NaN,NaN,NaN,NaN,NaN,,NaN,NaN,NaN,NaN,NaN,NaN,NaN,,NaN,,NaN,,NaN
1,1,NaN,NaN,NaN,"",NaN,NaN,"",NaN,NaN,NaN,NaN,NaN,NaN,NaN,NaN,NaN,NaN,NaN,NaN,NaN,NaN,NaN,NaN,NaN,NaN,NaN,NaN,NaN,,NaN,NaN,NaN,NaN,NaN,,NaN,NaN,NaN,NaN,NaN,NaN,NaN,,NaN,NaN,NaN,NaN,NaN,NaN,12,1,2020-11-10_09h26.05.454,Pirates_expt3,2020.1.2,MacIntel,60,4,8.230635,0,0,0,0,1,,NaN,NaN,NaN,NaN,NaN,NaN,,NaN,NaN,NaN,NaN,NaN,NaN,"",,NaN,NaN,NaN,NaN,NaN,NaN,NaN,NaN,NaN,NaN,NaN,NaN,NaN,,NaN,NaN,NaN,NaN,NaN,NaN,NaN,,NaN,,NaN,,NaN
NaN,NaN,1,NaN,NaN,"",NaN,NaN,"",NaN,NaN,NaN,NaN,NaN,NaN,NaN,NaN,NaN,NaN,NaN,NaN,NaN,NaN,NaN,NaN,NaN,NaN,NaN,NaN,NaN,,NaN,NaN,NaN,NaN,NaN,,NaN,NaN,NaN,NaN,NaN,NaN,NaN,,NaN,NaN,NaN,NaN,NaN,NaN,12,1,2020-11-10_09h26.05.454,Pirates_expt3,2020.1.2,MacIntel,60,3,14.05223,1,0,1,0,1,,NaN,NaN,NaN,NaN,NaN,NaN,,NaN,NaN,NaN,NaN,NaN,NaN,"",,NaN,NaN,NaN,NaN,NaN,NaN,NaN,NaN,NaN,NaN,NaN,NaN,NaN,,NaN,NaN,NaN,NaN,NaN,NaN,NaN,,NaN,,NaN,,NaN
NaN,NaN,NaN,38,NaN,"",NaN,NaN,"",NaN,NaN,NaN,NaN,NaN,NaN,NaN,NaN,NaN,NaN,NaN,NaN,NaN,NaN,NaN,NaN,NaN,NaN,NaN,NaN,NaN,,NaN,NaN,NaN,NaN,NaN,,NaN,NaN,NaN,NaN,NaN,NaN,NaN,,NaN,NaN,NaN,NaN,NaN,NaN,12,1,2020-11-10_09h26.05.454,Pirates_expt3,2020.1.2,MacIntel,60,NaN,NaN,NaN,NaN,NaN,NaN,NaN,return,5.428445,0,0,0,0,1,,NaN,NaN,NaN,NaN,NaN,NaN,"",,NaN,NaN,NaN,NaN,NaN,NaN,NaN,NaN,NaN,NaN,NaN,NaN,NaN,,NaN,NaN,NaN,NaN,NaN,NaN,NaN,,NaN,,NaN,,NaN
NaN,NaN,NaN,NaN,0,"",NaN,NaN,"",NaN,NaN,NaN,NaN,NaN,NaN,NaN,NaN,NaN,NaN,NaN,NaN,NaN,NaN,NaN,NaN,NaN,NaN,NaN,NaN,NaN,,NaN,NaN,NaN,NaN,NaN,,NaN,NaN,NaN,NaN,NaN,NaN,NaN,,NaN,NaN,NaN,NaN,NaN,NaN,12,1,2020-11-10_09h26.05.454,Pirates_expt3,2020.1.2,MacIntel,60,NaN,NaN,NaN,NaN,NaN,NaN,NaN,return,3.71664,1,0,1,0,1,,NaN,NaN,NaN,NaN,NaN,NaN,"",,NaN,NaN,NaN,NaN,NaN,NaN,NaN,NaN,NaN,NaN,NaN,NaN,NaN,,NaN,NaN,NaN,NaN,NaN,NaN,NaN,,NaN,,NaN,,NaN
NaN,NaN,NaN,NaN,NaN,"",NaN,NaN,"",NaN,NaN,NaN,NaN,NaN,NaN,NaN,NaN,NaN,NaN,NaN,NaN,NaN,NaN,NaN,NaN,NaN,NaN,NaN,NaN,NaN,,NaN,NaN,NaN,NaN,NaN,,NaN,NaN,NaN,NaN,NaN,NaN,NaN,,NaN,NaN,NaN,NaN,NaN,NaN,12,1,2020-11-10_09h26.05.454,Pirates_expt3,2020.1.2,MacIntel,60,NaN,NaN,NaN,NaN,NaN,NaN,NaN,,NaN,NaN,NaN,NaN,NaN,NaN,space,16.652895,0,0,0,0,1,"",,NaN,NaN,NaN,NaN,NaN,NaN,NaN,NaN,NaN,NaN,NaN,NaN,NaN,,NaN,NaN,NaN,NaN,NaN,NaN,NaN,,NaN,,NaN,,NaN
NaN,NaN,NaN,NaN,NaN,"",NaN,NaN,"",NaN,NaN,NaN,NaN,NaN,NaN,NaN,NaN,NaN,NaN,NaN,NaN,NaN,NaN,NaN,NaN,NaN,NaN,NaN,NaN,NaN,,NaN,NaN,NaN,NaN,NaN,,NaN,NaN,NaN,NaN,NaN,NaN,NaN,,NaN,NaN,NaN,NaN,NaN,NaN,12,1,2020-11-10_09h26.05.454,Pirates_expt3,2020.1.2,MacIntel,60,NaN,NaN,NaN,NaN,NaN,NaN,NaN,,NaN,NaN,NaN,NaN,NaN,NaN,space,8.865805,1,0,1,0,1,"",,NaN,NaN,NaN,NaN,NaN,NaN,NaN,NaN,NaN,NaN,NaN,NaN,NaN,,NaN,NaN,NaN,NaN,NaN,NaN,NaN,,NaN,,NaN,,NaN
NaN,NaN,NaN,NaN,NaN,"",NaN,NaN,"",NaN,NaN,NaN,NaN,NaN,NaN,NaN,NaN,NaN,NaN,NaN,NaN,NaN,NaN,NaN,NaN,NaN,NaN,NaN,NaN,NaN,,NaN,NaN,NaN,NaN,NaN,,NaN,NaN,NaN,NaN,NaN,NaN,NaN,,NaN,NaN,NaN,NaN,NaN,NaN,12,1,2020-11-10_09h26.05.454,Pirates_expt3,2020.1.2,MacIntel,60,NaN,NaN,NaN,NaN,NaN,NaN,NaN,,NaN,NaN,NaN,NaN,NaN,NaN,space,3.83867,2,0,2,0,1,"",,NaN,NaN,NaN,NaN,NaN,NaN,NaN,NaN,NaN,NaN,NaN,NaN,NaN,,NaN,NaN,NaN,NaN,NaN,NaN,NaN,,NaN,,NaN,,NaN
NaN,NaN,NaN,NaN,NaN,"",NaN,NaN,"",NaN,NaN,NaN,NaN,NaN,NaN,NaN,NaN,NaN,NaN,NaN,NaN,NaN,NaN,NaN,NaN,NaN,NaN,NaN,NaN,NaN,,NaN,NaN,NaN,NaN,NaN,,NaN,NaN,NaN,NaN,NaN,NaN,NaN,,NaN,NaN,NaN,NaN,NaN,NaN,12,1,2020-11-10_09h26.05.454,Pirates_expt3,2020.1.2,MacIntel,60,NaN,NaN,NaN,NaN,NaN,NaN,NaN,,NaN,NaN,NaN,NaN,NaN,NaN,space,4.622555,3,0,3,0,1,"",,NaN,NaN,NaN,NaN,NaN,NaN,NaN,NaN,NaN,NaN,NaN,NaN,NaN,,NaN,NaN,NaN,NaN,NaN,NaN,NaN,,NaN,,NaN,,NaN
NaN,NaN,NaN,NaN,NaN,"",NaN,NaN,"",NaN,NaN,NaN,NaN,NaN,NaN,NaN,NaN,NaN,NaN,NaN,NaN,NaN,NaN,NaN,NaN,NaN,NaN,NaN,NaN,NaN,,NaN,NaN,NaN,NaN,NaN,,NaN,NaN,NaN,NaN,NaN,NaN,NaN,,NaN,NaN,NaN,NaN,NaN,NaN,12,1,2020-11-10_09h26.05.454,Pirates_expt3,2020.1.2,MacIntel,60,NaN,NaN,NaN,NaN,NaN,NaN,NaN,,NaN,NaN,NaN,NaN,NaN,NaN,space,10.90727,4,0,4,0,1,"",,NaN,NaN,NaN,NaN,NaN,NaN,NaN,NaN,NaN,NaN,NaN,NaN,NaN,,NaN,NaN,NaN,NaN,NaN,NaN,NaN,,NaN,,NaN,,NaN
NaN,NaN,NaN,NaN,NaN,"",NaN,NaN,"",NaN,NaN,NaN,NaN,NaN,NaN,NaN,NaN,NaN,NaN,NaN,NaN,NaN,NaN,NaN,NaN,NaN,NaN,NaN,NaN,NaN,,NaN,NaN,NaN,NaN,NaN,,NaN,NaN,NaN,NaN,NaN,NaN,NaN,,NaN,NaN,NaN,NaN,NaN,NaN,12,1,2020-11-10_09h26.05.454,Pirates_expt3,2020.1.2,MacIntel,60,NaN,NaN,NaN,NaN,NaN,NaN,NaN,,NaN,NaN,NaN,NaN,NaN,NaN,space,3.46314,5,0,5,0,1,"",,NaN,NaN,NaN,NaN,NaN,NaN,NaN,NaN,NaN,NaN,NaN,NaN,NaN,,NaN,NaN,NaN,NaN,NaN,NaN,NaN,,NaN,,NaN,,NaN
NaN,NaN,NaN,NaN,NaN,"",NaN,NaN,"",NaN,NaN,NaN,NaN,NaN,NaN,NaN,NaN,NaN,NaN,NaN,NaN,NaN,NaN,NaN,NaN,NaN,NaN,NaN,NaN,NaN,,NaN,NaN,NaN,NaN,NaN,,NaN,NaN,NaN,NaN,NaN,NaN,NaN,,NaN,NaN,NaN,NaN,NaN,NaN,12,1,2020-11-10_09h26.05.454,Pirates_expt3,2020.1.2,MacIntel,60,NaN,NaN,NaN,NaN,NaN,NaN,NaN,,NaN,NaN,NaN,NaN,NaN,NaN,space,14.72594,6,0,6,0,1,"",,NaN,NaN,NaN,NaN,NaN,NaN,NaN,NaN,NaN,NaN,NaN,NaN,NaN,,NaN,NaN,NaN,NaN,NaN,NaN,NaN,,NaN,,NaN,,NaN
NaN,NaN,NaN,NaN,NaN,"",NaN,NaN,"",NaN,NaN,NaN,NaN,NaN,NaN,NaN,NaN,NaN,NaN,NaN,NaN,NaN,NaN,NaN,NaN,NaN,NaN,NaN,NaN,NaN,,NaN,NaN,NaN,NaN,NaN,,NaN,NaN,NaN,NaN,NaN,NaN,NaN,,NaN,NaN,NaN,NaN,NaN,NaN,12,1,2020-11-10_09h26.05.454,Pirates_expt3,2020.1.2,MacIntel,60,NaN,NaN,NaN,NaN,NaN,NaN,NaN,,NaN,NaN,NaN,NaN,NaN,NaN,space,11.38359,7,0,7,0,1,"",,NaN,NaN,NaN,NaN,NaN,NaN,NaN,NaN,NaN,NaN,NaN,NaN,NaN,,NaN,NaN,NaN,NaN,NaN,NaN,NaN,,NaN,,NaN,,NaN
NaN,NaN,NaN,NaN,NaN,"",NaN,NaN,"",NaN,NaN,NaN,NaN,NaN,NaN,NaN,NaN,NaN,NaN,NaN,NaN,NaN,NaN,NaN,NaN,NaN,NaN,NaN,NaN,NaN,,NaN,NaN,NaN,NaN,NaN,,NaN,NaN,NaN,NaN,NaN,NaN,NaN,,NaN,NaN,NaN,NaN,NaN,NaN,12,1,2020-11-10_09h26.05.454,Pirates_expt3,2020.1.2,MacIntel,60,NaN,NaN,NaN,NaN,NaN,NaN,NaN,,NaN,NaN,NaN,NaN,NaN,NaN,space,7.727245,8,0,8,0,1,"",,NaN,NaN,NaN,NaN,NaN,NaN,NaN,NaN,NaN,NaN,NaN,NaN,NaN,,NaN,NaN,NaN,NaN,NaN,NaN,NaN,,NaN,,NaN,,NaN
NaN,NaN,NaN,NaN,NaN,"",NaN,NaN,"",NaN,NaN,NaN,NaN,NaN,NaN,NaN,NaN,NaN,NaN,NaN,NaN,NaN,NaN,NaN,NaN,NaN,NaN,NaN,NaN,NaN,,NaN,NaN,NaN,NaN,NaN,,NaN,NaN,NaN,NaN,NaN,NaN,NaN,,NaN,NaN,NaN,NaN,NaN,NaN,12,1,2020-11-10_09h26.05.454,Pirates_expt3,2020.1.2,MacIntel,60,NaN,NaN,NaN,NaN,NaN,NaN,NaN,,NaN,NaN,NaN,NaN,NaN,NaN,space,1.607965,9,0,9,0,1,"",,NaN,NaN,NaN,NaN,NaN,NaN,NaN,NaN,NaN,NaN,NaN,NaN,NaN,,NaN,NaN,NaN,NaN,NaN,NaN,NaN,,NaN,,NaN,,NaN
NaN,NaN,NaN,NaN,NaN,"[100,100,100]",NaN,0.05,"[0.1,0.05,0.15]",1,1.5,1,2,0,2,72,73,79,0.1,0.05,0.15,0.05,73,72,79,0.05,0.1,0.15,1,1,j,5.24208,0,0,0,1,N/A,0,0,0,0,1,199,0,,NaN,NaN,NaN,NaN,NaN,NaN,12,1,2020-11-10_09h26.05.454,Pirates_expt3,2020.1.2,MacIntel,60,NaN,NaN,NaN,NaN,NaN,NaN,NaN,,NaN,NaN,NaN,NaN,NaN,NaN,,NaN,NaN,NaN,NaN,NaN,NaN,"[72,73,79]",return,8.543325,4,0,4,0,1,3,200,0,200,0,1,199,,NaN,NaN,NaN,NaN,NaN,NaN,NaN,,NaN,,NaN,,NaN
NaN,NaN,NaN,NaN,NaN,"",NaN,NaN,"",NaN,NaN,1,2,0,2,74,74,82,0.1,0.05,0.15,0.05,74,74,82,0.05,0.1,0.15,0,2,0,0,0,0,0,1,N/A,0,0,0,0,1,199,0,,NaN,NaN,NaN,NaN,NaN,NaN,12,1,2020-11-10_09h26.05.454,Pirates_expt3,2020.1.2,MacIntel,60,NaN,NaN,NaN,NaN,NaN,NaN,NaN,,NaN,NaN,NaN,NaN,NaN,NaN,,NaN,NaN,NaN,NaN,NaN,NaN,"",,NaN,4,0,4,0,1,3,200,0,200,0,1,199,j,5.24208,NaN,NaN,NaN,NaN,NaN,NaN,,NaN,,NaN,,NaN
NaN,NaN,NaN,NaN,NaN,"",NaN,NaN,"",NaN,NaN,1,2,0,2,74,74,82,0.1,0.05,0.15,0.05,74,74,82,0.05,0.1,0.15,2,3,0,0,74,74,0,1,space,2.41255,0,0,0,1,199,0,,NaN,NaN,NaN,NaN,NaN,NaN,12,1,2020-11-10_09h26.05.454,Pirates_expt3,2020.1.2,MacIntel,60,NaN,NaN,NaN,NaN,NaN,NaN,NaN,,NaN,NaN,NaN,NaN,NaN,NaN,,NaN,NaN,NaN,NaN,NaN,NaN,"",,NaN,4,0,4,0,1,3,200,0,200,0,1,199,,NaN,200,0,200,0,1,199,,NaN,,NaN,,NaN
NaN,NaN,NaN,NaN,NaN,"",NaN,NaN,"",NaN,NaN,1,2,37,2,77,74,84,0.1,0.05,0.15,0.05,74,77,84,0.05,0.1,0.15,0,4,0,0,74,74,74,2,0,0,0,37,74,2,198,0,,NaN,NaN,NaN,NaN,NaN,NaN,12,1,2020-11-10_09h26.05.454,Pirates_expt3,2020.1.2,MacIntel,60,NaN,NaN,NaN,NaN,NaN,NaN,NaN,,NaN,NaN,NaN,NaN,NaN,NaN,,NaN,NaN,NaN,NaN,NaN,NaN,"",,NaN,4,0,4,0,1,3,200,0,200,0,1,199,,NaN,200,0,200,0,1,199,space,2.41255,,NaN,,NaN
NaN,NaN,NaN,NaN,NaN,"",NaN,NaN,"",NaN,NaN,NaN,NaN,NaN,NaN,NaN,NaN,NaN,NaN,NaN,NaN,NaN,NaN,NaN,NaN,NaN,NaN,NaN,NaN,NaN,,NaN,NaN,NaN,NaN,NaN,,NaN,NaN,NaN,NaN,NaN,NaN,NaN,,NaN,NaN,NaN,NaN,NaN,NaN,12,1,2020-11-10_09h26.05.454,Pirates_expt3,2020.1.2,MacIntel,60,NaN,NaN,NaN,NaN,NaN,NaN,NaN,,NaN,NaN,NaN,NaN,NaN,NaN,,NaN,NaN,NaN,NaN,NaN,NaN,"",,NaN,NaN,NaN,NaN,NaN,NaN,NaN,NaN,NaN,NaN,NaN,NaN,NaN,,NaN,0,0,0,0,1,NaN,,NaN,,NaN,,NaN
NaN,NaN,NaN,NaN,NaN,"",NaN,NaN,"",NaN,NaN,1,2,37,2,77,70,84,0.1,0.05,0.15,0.05,70,77,84,0.05,0.1,0.15,2,3,0,0,70,70,74,2,space,2.745525,0,37,74,2,198,0,,NaN,NaN,NaN,NaN,NaN,NaN,12,1,2020-11-10_09h26.05.454,Pirates_expt3,2020.1.2,MacIntel,60,NaN,NaN,NaN,NaN,NaN,NaN,NaN,,NaN,NaN,NaN,NaN,NaN,NaN,,NaN,NaN,NaN,NaN,NaN,NaN,"",,NaN,4,0,4,0,1,3,200,0,200,0,1,199,,NaN,200,0,200,0,1,199,,NaN,,NaN,,NaN
NaN,NaN,NaN,NaN,NaN,"",NaN,NaN,"",NaN,NaN,1,2,48,2,79,70,87,0.1,0.05,0.15,0.05,70,79,87,0.05,0.1,0.15,0,4,0,0,70,70,144,3,0,0,0,48,144,3,197,0,,NaN,NaN,NaN,NaN,NaN,NaN,12,1,2020-11-10_09h26.05.454,Pirates_expt3,2020.1.2,MacIntel,60,NaN,NaN,NaN,NaN,NaN,NaN,NaN,,NaN,NaN,NaN,NaN,NaN,NaN,,NaN,NaN,NaN,NaN,NaN,NaN,"",,NaN,4,0,4,0,1,3,200,0,200,0,1,199,,NaN,200,0,200,0,1,199,space,2.745525,,NaN,,NaN
NaN,NaN,NaN,NaN,NaN,"",NaN,NaN,"",NaN,NaN,NaN,NaN,NaN,NaN,NaN,NaN,NaN,NaN,NaN,NaN,NaN,NaN,NaN,NaN,NaN,NaN,NaN,NaN,NaN,,NaN,NaN,NaN,NaN,NaN,,NaN,NaN,NaN,NaN,NaN,NaN,NaN,,NaN,NaN,NaN,NaN,NaN,NaN,12,1,2020-11-10_09h26.05.454,Pirates_expt3,2020.1.2,MacIntel,60,NaN,NaN,NaN,NaN,NaN,NaN,NaN,,NaN,NaN,NaN,NaN,NaN,NaN,,NaN,NaN,NaN,NaN,NaN,NaN,"",,NaN,NaN,NaN,NaN,NaN,NaN,NaN,NaN,NaN,NaN,NaN,NaN,NaN,,NaN,1,0,1,0,1,NaN,,NaN,,NaN,,NaN
NaN,NaN,NaN,NaN,NaN,"",NaN,NaN,"",NaN,NaN,1,2,48,2,79,63,87,0.1,0.05,0.15,0.05,63,79,87,0.05,0.1,0.15,3,3,0,0,63,63,144,3,s,3.783645,2,48,144,3,197,0,,NaN,NaN,NaN,NaN,NaN,NaN,12,1,2020-11-10_09h26.05.454,Pirates_expt3,2020.1.2,MacIntel,60,NaN,NaN,NaN,NaN,NaN,NaN,NaN,,NaN,NaN,NaN,NaN,NaN,NaN,,NaN,NaN,NaN,NaN,NaN,NaN,"",,NaN,4,0,4,0,1,3,200,0,200,0,1,199,,NaN,200,0,200,0,1,199,,NaN,,NaN,,NaN
NaN,NaN,NaN,NaN,NaN,"",NaN,NaN,"",NaN,NaN,1,2,36,2,81,65,89,0.1,0.05,0.15,0.05,65,81,89,0.05,0.1,0.15,0,4,0,0,65,63,144,4,0,0,0,36,144,4,196,12.1,,NaN,NaN,NaN,NaN,NaN,NaN,12,1,2020-11-10_09h26.05.454,Pirates_expt3,2020.1.2,MacIntel,60,NaN,NaN,NaN,NaN,NaN,NaN,NaN,,NaN,NaN,NaN,NaN,NaN,NaN,,NaN,NaN,NaN,NaN,NaN,NaN,"",,NaN,4,0,4,0,1,3,200,0,200,0,1,199,,NaN,200,0,200,0,1,199,s,3.783645,,NaN,,NaN
NaN,NaN,NaN,NaN,NaN,"",NaN,NaN,"",NaN,NaN,NaN,NaN,NaN,NaN,NaN,NaN,NaN,NaN,NaN,NaN,NaN,NaN,NaN,NaN,NaN,NaN,NaN,NaN,NaN,,NaN,NaN,NaN,NaN,NaN,,NaN,NaN,NaN,NaN,NaN,NaN,NaN,,NaN,NaN,NaN,NaN,NaN,NaN,12,1,2020-11-10_09h26.05.454,Pirates_expt3,2020.1.2,MacIntel,60,NaN,NaN,NaN,NaN,NaN,NaN,NaN,,NaN,NaN,NaN,NaN,NaN,NaN,,NaN,NaN,NaN,NaN,NaN,NaN,"",,NaN,NaN,NaN,NaN,NaN,NaN,NaN,0,0,0,0,1,NaN,,NaN,NaN,NaN,NaN,NaN,NaN,NaN,,NaN,,NaN,,NaN
NaN,NaN,NaN,NaN,NaN,"",NaN,NaN,"",NaN,NaN,1,2,36,3,81,65,89,0.1,0.05,0.15,0.15,65,81,89,0.05,0.1,0.15,1,1,k,1.597835,0,0,144,5,N/A,0,0,36,144,5,195,0,,NaN,NaN,NaN,NaN,NaN,NaN,12,1,2020-11-10_09h26.05.454,Pirates_expt3,2020.1.2,MacIntel,60,NaN,NaN,NaN,NaN,NaN,NaN,NaN,,NaN,NaN,NaN,NaN,NaN,NaN,,NaN,NaN,NaN,NaN,NaN,NaN,"",,NaN,4,0,4,0,1,3,200,0,200,0,1,199,,NaN,NaN,NaN,NaN,NaN,NaN,NaN,,NaN,,NaN,,NaN
NaN,NaN,NaN,NaN,NaN,"",NaN,NaN,"",NaN,NaN,1,2,36,3,83,67,90,0.1,0.05,0.15,0.15,67,83,90,0.05,0.1,0.15,0,2,0,0,0,0,144,5,N/A,0,0,36,144,5,195,0,,NaN,NaN,NaN,NaN,NaN,NaN,12,1,2020-11-10_09h26.05.454,Pirates_expt3,2020.1.2,MacIntel,60,NaN,NaN,NaN,NaN,NaN,NaN,NaN,,NaN,NaN,NaN,NaN,NaN,NaN,,NaN,NaN,NaN,NaN,NaN,NaN,"",,NaN,4,0,4,0,1,3,200,0,200,0,1,199,k,1.597835,NaN,NaN,NaN,NaN,NaN,NaN,,NaN,,NaN,,NaN
NaN,NaN,NaN,NaN,NaN,"",NaN,NaN,"",NaN,NaN,1,2,28,3,83,67,90,0.1,0.05,0.15,0.15,67,83,90,0.05,0.1,0.15,2,3,0,0,90,90,144,5,space,0.828705,0,28,144,5,195,0,,NaN,NaN,NaN,NaN,NaN,NaN,12,1,2020-11-10_09h26.05.454,Pirates_expt3,2020.1.2,MacIntel,60,NaN,NaN,NaN,NaN,NaN,NaN,NaN,,NaN,NaN,NaN,NaN,NaN,NaN,,NaN,NaN,NaN,NaN,NaN,NaN,"",,NaN,4,0,4,0,1,3,200,0,200,0,1,199,,NaN,200,0,200,0,1,199,,NaN,,NaN,,NaN
NaN,NaN,NaN,NaN,NaN,"",NaN,NaN,"",NaN,NaN,1,2,39,3,85,68,90,0.1,0.05,0.15,0.15,68,85,90,0.05,0.1,0.15,0,4,0,0,90,90,235,6,0,0,0,39,235,6,194,0,,NaN,NaN,NaN,NaN,NaN,NaN,12,1,2020-11-10_09h26.05.454,Pirates_expt3,2020.1.2,MacIntel,60,NaN,NaN,NaN,NaN,NaN,NaN,NaN,,NaN,NaN,NaN,NaN,NaN,NaN,,NaN,NaN,NaN,NaN,NaN,NaN,"",,NaN,4,0,4,0,1,3,200,0,200,0,1,199,,NaN,200,0,200,0,1,199,space,0.828705,,NaN,,NaN
NaN,NaN,NaN,NaN,NaN,"",NaN,NaN,"",NaN,NaN,NaN,NaN,NaN,NaN,NaN,NaN,NaN,NaN,NaN,NaN,NaN,NaN,NaN,NaN,NaN,NaN,NaN,NaN,NaN,,NaN,NaN,NaN,NaN,NaN,,NaN,NaN,NaN,NaN,NaN,NaN,NaN,,NaN,NaN,NaN,NaN,NaN,NaN,12,1,2020-11-10_09h26.05.454,Pirates_expt3,2020.1.2,MacIntel,60,NaN,NaN,NaN,NaN,NaN,NaN,NaN,,NaN,NaN,NaN,NaN,NaN,NaN,,NaN,NaN,NaN,NaN,NaN,NaN,"",,NaN,NaN,NaN,NaN,NaN,NaN,NaN,NaN,NaN,NaN,NaN,NaN,NaN,,NaN,0,0,0,0,1,NaN,,NaN,,NaN,,NaN
NaN,NaN,NaN,NaN,NaN,"",NaN,NaN,"",NaN,NaN,1,2,39,3,85,68,86,0.1,0.05,0.15,0.15,68,85,86,0.05,0.1,0.15,3,3,0,0,86,86,235,6,s,7.397955,1,39,235,6,194,0,,NaN,NaN,NaN,NaN,NaN,NaN,12,1,2020-11-10_09h26.05.454,Pirates_expt3,2020.1.2,MacIntel,60,NaN,NaN,NaN,NaN,NaN,NaN,NaN,,NaN,NaN,NaN,NaN,NaN,NaN,,NaN,NaN,NaN,NaN,NaN,NaN,"",,NaN,4,0,4,0,1,3,200,0,200,0,1,199,,NaN,200,0,200,0,1,199,,NaN,,NaN,,NaN
NaN,NaN,NaN,NaN,NaN,"",NaN,NaN,"",NaN,NaN,1,2,33,3,86,70,88,0.1,0.05,0.15,0.15,70,86,88,0.05,0.1,0.15,0,4,0,0,88,86,235,7,0,0,0,33,235,7,193,9.834,,NaN,NaN,NaN,NaN,NaN,NaN,12,1,2020-11-10_09h26.05.454,Pirates_expt3,2020.1.2,MacIntel,60,NaN,NaN,NaN,NaN,NaN,NaN,NaN,,NaN,NaN,NaN,NaN,NaN,NaN,,NaN,NaN,NaN,NaN,NaN,NaN,"",,NaN,4,0,4,0,1,3,200,0,200,0,1,199,,NaN,200,0,200,0,1,199,s,7.397955,,NaN,,NaN
NaN,NaN,NaN,NaN,NaN,"",NaN,NaN,"",NaN,NaN,NaN,NaN,NaN,NaN,NaN,NaN,NaN,NaN,NaN,NaN,NaN,NaN,NaN,NaN,NaN,NaN,NaN,NaN,NaN,,NaN,NaN,NaN,NaN,NaN,,NaN,NaN,NaN,NaN,NaN,NaN,NaN,,NaN,NaN,NaN,NaN,NaN,NaN,12,1,2020-11-10_09h26.05.454,Pirates_expt3,2020.1.2,MacIntel,60,NaN,NaN,NaN,NaN,NaN,NaN,NaN,,NaN,NaN,NaN,NaN,NaN,NaN,,NaN,NaN,NaN,NaN,NaN,NaN,"",,NaN,NaN,NaN,NaN,NaN,NaN,NaN,1,0,1,0,1,NaN,,NaN,NaN,NaN,NaN,NaN,NaN,NaN,,NaN,,NaN,,NaN
NaN,NaN,NaN,NaN,NaN,"",NaN,NaN,"",NaN,NaN,1,2,33,1,86,70,88,0.1,0.05,0.15,0.1,70,86,88,0.05,0.1,0.15,1,1,f,1.624515,0,0,235,8,N/A,0,0,33,235,8,192,0,,NaN,NaN,NaN,NaN,NaN,NaN,12,1,2020-11-10_09h26.05.454,Pirates_expt3,2020.1.2,MacIntel,60,NaN,NaN,NaN,NaN,NaN,NaN,NaN,,NaN,NaN,NaN,NaN,NaN,NaN,,NaN,NaN,NaN,NaN,NaN,NaN,"",,NaN,4,0,4,0,1,3,200,0,200,0,1,199,,NaN,NaN,NaN,NaN,NaN,NaN,NaN,,NaN,,NaN,,NaN
NaN,NaN,NaN,NaN,NaN,"",NaN,NaN,"",NaN,NaN,1,2,33,1,87,71,89,0.1,0.05,0.15,0.1,71,87,89,0.05,0.1,0.15,0,2,0,0,0,0,235,8,N/A,0,0,33,235,8,192,0,,NaN,NaN,NaN,NaN,NaN,NaN,12,1,2020-11-10_09h26.05.454,Pirates_expt3,2020.1.2,MacIntel,60,NaN,NaN,NaN,NaN,NaN,NaN,NaN,,NaN,NaN,NaN,NaN,NaN,NaN,,NaN,NaN,NaN,NaN,NaN,NaN,"",,NaN,4,0,4,0,1,3,200,0,200,0,1,199,f,1.624515,NaN,NaN,NaN,NaN,NaN,NaN,,NaN,,NaN,,NaN
NaN,NaN,NaN,NaN,NaN,"",NaN,NaN,"",NaN,NaN,1,2,29,1,87,71,89,0.1,0.05,0.15,0.1,71,87,89,0.05,0.1,0.15,2,3,0,0,87,87,235,8,space,1.04248,0,29,235,8,192,0,,NaN,NaN,NaN,NaN,NaN,NaN,12,1,2020-11-10_09h26.05.454,Pirates_expt3,2020.1.2,MacIntel,60,NaN,NaN,NaN,NaN,NaN,NaN,NaN,,NaN,NaN,NaN,NaN,NaN,NaN,,NaN,NaN,NaN,NaN,NaN,NaN,"",,NaN,4,0,4,0,1,3,200,0,200,0,1,199,,NaN,200,0,200,0,1,199,,NaN,,NaN,,NaN
NaN,NaN,NaN,NaN,NaN,"",NaN,NaN,"",NaN,NaN,1,2,35,1,87,73,91,0.1,0.05,0.15,0.1,73,87,91,0.05,0.1,0.15,0,4,0,0,87,87,323,9,0,0,0,35,323,9,191,0,,NaN,NaN,NaN,NaN,NaN,NaN,12,1,2020-11-10_09h26.05.454,Pirates_expt3,2020.1.2,MacIntel,60,NaN,NaN,NaN,NaN,NaN,NaN,NaN,,NaN,NaN,NaN,NaN,NaN,NaN,,NaN,NaN,NaN,NaN,NaN,NaN,"",,NaN,4,0,4,0,1,3,200,0,200,0,1,199,,NaN,200,0,200,0,1,199,space,1.04248,,NaN,,NaN
NaN,NaN,NaN,NaN,NaN,"",NaN,NaN,"",NaN,NaN,NaN,NaN,NaN,NaN,NaN,NaN,NaN,NaN,NaN,NaN,NaN,NaN,NaN,NaN,NaN,NaN,NaN,NaN,NaN,,NaN,NaN,NaN,NaN,NaN,,NaN,NaN,NaN,NaN,NaN,NaN,NaN,,NaN,NaN,NaN,NaN,NaN,NaN,12,1,2020-11-10_09h26.05.454,Pirates_expt3,2020.1.2,MacIntel,60,NaN,NaN,NaN,NaN,NaN,NaN,NaN,,NaN,NaN,NaN,NaN,NaN,NaN,,NaN,NaN,NaN,NaN,NaN,NaN,"",,NaN,NaN,NaN,NaN,NaN,NaN,NaN,NaN,NaN,NaN,NaN,NaN,NaN,,NaN,0,0,0,0,1,NaN,,NaN,,NaN,,NaN
NaN,NaN,NaN,NaN,NaN,"",NaN,NaN,"",NaN,NaN,1,2,35,1,83,73,91,0.1,0.05,0.15,0.1,73,83,91,0.05,0.1,0.15,3,3,0,0,83,83,323,9,s,1.17449,1,35,323,9,191,0,,NaN,NaN,NaN,NaN,NaN,NaN,12,1,2020-11-10_09h26.05.454,Pirates_expt3,2020.1.2,MacIntel,60,NaN,NaN,NaN,NaN,NaN,NaN,NaN,,NaN,NaN,NaN,NaN,NaN,NaN,,NaN,NaN,NaN,NaN,NaN,NaN,"",,NaN,4,0,4,0,1,3,200,0,200,0,1,199,,NaN,200,0,200,0,1,199,,NaN,,NaN,,NaN
NaN,NaN,NaN,NaN,NaN,"",NaN,NaN,"",NaN,NaN,1,2,32,1,85,74,92,0.1,0.05,0.15,0.1,74,85,92,0.05,0.1,0.15,0,4,0,0,85,83,323,10,0,0,0,32,323,10,190,3.801,,NaN,NaN,NaN,NaN,NaN,NaN,12,1,2020-11-10_09h26.05.454,Pirates_expt3,2020.1.2,MacIntel,60,NaN,NaN,NaN,NaN,NaN,NaN,NaN,,NaN,NaN,NaN,NaN,NaN,NaN,,NaN,NaN,NaN,NaN,NaN,NaN,"",,NaN,4,0,4,0,1,3,200,0,200,0,1,199,,NaN,200,0,200,0,1,199,s,1.17449,,NaN,,NaN
NaN,NaN,NaN,NaN,NaN,"",NaN,NaN,"",NaN,NaN,NaN,NaN,NaN,NaN,NaN,NaN,NaN,NaN,NaN,NaN,NaN,NaN,NaN,NaN,NaN,NaN,NaN,NaN,NaN,,NaN,NaN,NaN,NaN,NaN,,NaN,NaN,NaN,NaN,NaN,NaN,NaN,,NaN,NaN,NaN,NaN,NaN,NaN,12,1,2020-11-10_09h26.05.454,Pirates_expt3,2020.1.2,MacIntel,60,NaN,NaN,NaN,NaN,NaN,NaN,NaN,,NaN,NaN,NaN,NaN,NaN,NaN,,NaN,NaN,NaN,NaN,NaN,NaN,"",,NaN,NaN,NaN,NaN,NaN,NaN,NaN,2,0,2,0,1,NaN,,NaN,NaN,NaN,NaN,NaN,NaN,NaN,,NaN,,NaN,,NaN
NaN,NaN,NaN,NaN,NaN,"",NaN,NaN,"",NaN,NaN,1,2,32,2,85,74,92,0.1,0.05,0.15,0.05,74,85,92,0.05,0.1,0.15,1,1,j,1.048905,0,0,323,11,N/A,0,0,32,323,11,189,0,,NaN,NaN,NaN,NaN,NaN,NaN,12,1,2020-11-10_09h26.05.454,Pirates_expt3,2020.1.2,MacIntel,60,NaN,NaN,NaN,NaN,NaN,NaN,NaN,,NaN,NaN,NaN,NaN,NaN,NaN,,NaN,NaN,NaN,NaN,NaN,NaN,"",,NaN,4,0,4,0,1,3,200,0,200,0,1,199,,NaN,NaN,NaN,NaN,NaN,NaN,NaN,,NaN,,NaN,,NaN
NaN,NaN,NaN,NaN,NaN,"",NaN,NaN,"",NaN,NaN,1,2,32,2,86,75,93,0.1,0.05,0.15,0.05,75,86,93,0.05,0.1,0.15,0,2,0,0,0,0,323,11,N/A,0,0,32,323,11,189,0,,NaN,NaN,NaN,NaN,NaN,NaN,12,1,2020-11-10_09h26.05.454,Pirates_expt3,2020.1.2,MacIntel,60,NaN,NaN,NaN,NaN,NaN,NaN,NaN,,NaN,NaN,NaN,NaN,NaN,NaN,,NaN,NaN,NaN,NaN,NaN,NaN,"",,NaN,4,0,4,0,1,3,200,0,200,0,1,199,j,1.048905,NaN,NaN,NaN,NaN,NaN,NaN,,NaN,,NaN,,NaN
NaN,NaN,NaN,NaN,NaN,"",NaN,NaN,"",NaN,NaN,1,2,29,2,86,75,93,0.1,0.05,0.15,0.05,75,86,93,0.05,0.1,0.15,2,3,0,0,75,75,323,11,space,2.533505,0,29,323,11,189,0,,NaN,NaN,NaN,NaN,NaN,NaN,12,1,2020-11-10_09h26.05.454,Pirates_expt3,2020.1.2,MacIntel,60,NaN,NaN,NaN,NaN,NaN,NaN,NaN,,NaN,NaN,NaN,NaN,NaN,NaN,,NaN,NaN,NaN,NaN,NaN,NaN,"",,NaN,4,0,4,0,1,3,200,0,200,0,1,199,,NaN,200,0,200,0,1,199,,NaN,,NaN,,NaN
NaN,NaN,NaN,NaN,NaN,"",NaN,NaN,"",NaN,NaN,1,2,33,2,88,75,94,0.1,0.05,0.15,0.05,75,88,94,0.05,0.1,0.15,0,4,0,0,75,75,399,12,0,0,0,33,399,12,188,0,,NaN,NaN,NaN,NaN,NaN,NaN,12,1,2020-11-10_09h26.05.454,Pirates_expt3,2020.1.2,MacIntel,60,NaN,NaN,NaN,NaN,NaN,NaN,NaN,,NaN,NaN,NaN,NaN,NaN,NaN,,NaN,NaN,NaN,NaN,NaN,NaN,"",,NaN,4,0,4,0,1,3,200,0,200,0,1,199,,NaN,200,0,200,0,1,199,space,2.533505,,NaN,,NaN
NaN,NaN,NaN,NaN,NaN,"",NaN,NaN,"",NaN,NaN,NaN,NaN,NaN,NaN,NaN,NaN,NaN,NaN,NaN,NaN,NaN,NaN,NaN,NaN,NaN,NaN,NaN,NaN,NaN,,NaN,NaN,NaN,NaN,NaN,,NaN,NaN,NaN,NaN,NaN,NaN,NaN,,NaN,NaN,NaN,NaN,NaN,NaN,12,1,2020-11-10_09h26.05.454,Pirates_expt3,2020.1.2,MacIntel,60,NaN,NaN,NaN,NaN,NaN,NaN,NaN,,NaN,NaN,NaN,NaN,NaN,NaN,,NaN,NaN,NaN,NaN,NaN,NaN,"",,NaN,NaN,NaN,NaN,NaN,NaN,NaN,NaN,NaN,NaN,NaN,NaN,NaN,,NaN,0,0,0,0,1,NaN,,NaN,,NaN,,NaN
NaN,NaN,NaN,NaN,NaN,"",NaN,NaN,"",NaN,NaN,1,2,33,2,88,72,94,0.1,0.05,0.15,0.05,72,88,94,0.05,0.1,0.15,2,3,0,0,72,72,399,12,space,0.97393,0,33,399,12,188,0,,NaN,NaN,NaN,NaN,NaN,NaN,12,1,2020-11-10_09h26.05.454,Pirates_expt3,2020.1.2,MacIntel,60,NaN,NaN,NaN,NaN,NaN,NaN,NaN,,NaN,NaN,NaN,NaN,NaN,NaN,,NaN,NaN,NaN,NaN,NaN,NaN,"",,NaN,4,0,4,0,1,3,200,0,200,0,1,199,,NaN,200,0,200,0,1,199,,NaN,,NaN,,NaN
NaN,NaN,NaN,NaN,NaN,"",NaN,NaN,"",NaN,NaN,1,2,36,2,89,72,95,0.1,0.05,0.15,0.05,72,89,95,0.05,0.1,0.15,0,4,0,0,72,72,471,13,0,0,0,36,471,13,187,0,,NaN,NaN,NaN,NaN,NaN,NaN,12,1,2020-11-10_09h26.05.454,Pirates_expt3,2020.1.2,MacIntel,60,NaN,NaN,NaN,NaN,NaN,NaN,NaN,,NaN,NaN,NaN,NaN,NaN,NaN,,NaN,NaN,NaN,NaN,NaN,NaN,"",,NaN,4,0,4,0,1,3,200,0,200,0,1,199,,NaN,200,0,200,0,1,199,space,0.97393,,NaN,,NaN
NaN,NaN,NaN,NaN,NaN,"",NaN,NaN,"",NaN,NaN,NaN,NaN,NaN,NaN,NaN,NaN,NaN,NaN,NaN,NaN,NaN,NaN,NaN,NaN,NaN,NaN,NaN,NaN,NaN,,NaN,NaN,NaN,NaN,NaN,,NaN,NaN,NaN,NaN,NaN,NaN,NaN,,NaN,NaN,NaN,NaN,NaN,NaN,12,1,2020-11-10_09h26.05.454,Pirates_expt3,2020.1.2,MacIntel,60,NaN,NaN,NaN,NaN,NaN,NaN,NaN,,NaN,NaN,NaN,NaN,NaN,NaN,,NaN,NaN,NaN,NaN,NaN,NaN,"",,NaN,NaN,NaN,NaN,NaN,NaN,NaN,NaN,NaN,NaN,NaN,NaN,NaN,,NaN,1,0,1,0,1,NaN,,NaN,,NaN,,NaN
NaN,NaN,NaN,NaN,NaN,"",NaN,NaN,"",NaN,NaN,1,2,36,2,89,65,95,0.1,0.05,0.15,0.05,65,89,95,0.05,0.1,0.15,2,3,0,0,65,65,471,13,space,1.001115,0,36,471,13,187,0,,NaN,NaN,NaN,NaN,NaN,NaN,12,1,2020-11-10_09h26.05.454,Pirates_expt3,2020.1.2,MacIntel,60,NaN,NaN,NaN,NaN,NaN,NaN,NaN,,NaN,NaN,NaN,NaN,NaN,NaN,,NaN,NaN,NaN,NaN,NaN,NaN,"",,NaN,4,0,4,0,1,3,200,0,200,0,1,199,,NaN,200,0,200,0,1,199,,NaN,,NaN,,NaN
NaN,NaN,NaN,NaN,NaN,"",NaN,NaN,"",NaN,NaN,1,2,38,2,90,65,96,0.1,0.05,0.15,0.05,65,90,96,0.05,0.1,0.15,0,4,0,0,65,65,536,14,0,0,0,38,536,14,186,0,,NaN,NaN,NaN,NaN,NaN,NaN,12,1,2020-11-10_09h26.05.454,Pirates_expt3,2020.1.2,MacIntel,60,NaN,NaN,NaN,NaN,NaN,NaN,NaN,,NaN,NaN,NaN,NaN,NaN,NaN,,NaN,NaN,NaN,NaN,NaN,NaN,"",,NaN,4,0,4,0,1,3,200,0,200,0,1,199,,NaN,200,0,200,0,1,199,space,1.001115,,NaN,,NaN
NaN,NaN,NaN,NaN,NaN,"",NaN,NaN,"",NaN,NaN,NaN,NaN,NaN,NaN,NaN,NaN,NaN,NaN,NaN,NaN,NaN,NaN,NaN,NaN,NaN,NaN,NaN,NaN,NaN,,NaN,NaN,NaN,NaN,NaN,,NaN,NaN,NaN,NaN,NaN,NaN,NaN,,NaN,NaN,NaN,NaN,NaN,NaN,12,1,2020-11-10_09h26.05.454,Pirates_expt3,2020.1.2,MacIntel,60,NaN,NaN,NaN,NaN,NaN,NaN,NaN,,NaN,NaN,NaN,NaN,NaN,NaN,,NaN,NaN,NaN,NaN,NaN,NaN,"",,NaN,NaN,NaN,NaN,NaN,NaN,NaN,NaN,NaN,NaN,NaN,NaN,NaN,,NaN,2,0,2,0,1,NaN,,NaN,,NaN,,NaN
NaN,NaN,NaN,NaN,NaN,"",NaN,NaN,"",NaN,NaN,1,2,38,2,90,55,96,0.1,0.05,0.15,0.05,55,90,96,0.05,0.1,0.15,3,3,0,0,55,55,536,14,s,1.094125,3,38,536,14,186,0,,NaN,NaN,NaN,NaN,NaN,NaN,12,1,2020-11-10_09h26.05.454,Pirates_expt3,2020.1.2,MacIntel,60,NaN,NaN,NaN,NaN,NaN,NaN,NaN,,NaN,NaN,NaN,NaN,NaN,NaN,,NaN,NaN,NaN,NaN,NaN,NaN,"",,NaN,4,0,4,0,1,3,200,0,200,0,1,199,,NaN,200,0,200,0,1,199,,NaN,,NaN,,NaN
NaN,NaN,NaN,NaN,NaN,"",NaN,NaN,"",NaN,NaN,1,2,35,2,91,58,96,0.1,0.05,0.15,0.05,58,91,96,0.05,0.1,0.15,0,4,0,0,58,55,536,15,0,0,0,35,536,15,185,10.284,,NaN,NaN,NaN,NaN,NaN,NaN,12,1,2020-11-10_09h26.05.454,Pirates_expt3,2020.1.2,MacIntel,60,NaN,NaN,NaN,NaN,NaN,NaN,NaN,,NaN,NaN,NaN,NaN,NaN,NaN,,NaN,NaN,NaN,NaN,NaN,NaN,"",,NaN,4,0,4,0,1,3,200,0,200,0,1,199,,NaN,200,0,200,0,1,199,s,1.094125,,NaN,,NaN
NaN,NaN,NaN,NaN,NaN,"",NaN,NaN,"",NaN,NaN,NaN,NaN,NaN,NaN,NaN,NaN,NaN,NaN,NaN,NaN,NaN,NaN,NaN,NaN,NaN,NaN,NaN,NaN,NaN,,NaN,NaN,NaN,NaN,NaN,,NaN,NaN,NaN,NaN,NaN,NaN,NaN,,NaN,NaN,NaN,NaN,NaN,NaN,12,1,2020-11-10_09h26.05.454,Pirates_expt3,2020.1.2,MacIntel,60,NaN,NaN,NaN,NaN,NaN,NaN,NaN,,NaN,NaN,NaN,NaN,NaN,NaN,,NaN,NaN,NaN,NaN,NaN,NaN,"",,NaN,NaN,NaN,NaN,NaN,NaN,NaN,3,0,3,0,1,NaN,,NaN,NaN,NaN,NaN,NaN,NaN,NaN,,NaN,,NaN,,NaN
NaN,NaN,NaN,NaN,NaN,"",NaN,NaN,"",NaN,NaN,1,2,35,3,91,58,96,0.1,0.05,0.15,0.15,58,91,96,0.05,0.1,0.15,1,1,k,1.805905,0,0,536,16,N/A,0,0,35,536,16,184,0,,NaN,NaN,NaN,NaN,NaN,NaN,12,1,2020-11-10_09h26.05.454,Pirates_expt3,2020.1.2,MacIntel,60,NaN,NaN,NaN,NaN,NaN,NaN,NaN,,NaN,NaN,NaN,NaN,NaN,NaN,,NaN,NaN,NaN,NaN,NaN,NaN,"",,NaN,4,0,4,0,1,3,200,0,200,0,1,199,,NaN,NaN,NaN,NaN,NaN,NaN,NaN,,NaN,,NaN,,NaN
NaN,NaN,NaN,NaN,NaN,"",NaN,NaN,"",NaN,NaN,1,2,35,3,92,60,97,0.1,0.05,0.15,0.15,60,92,97,0.05,0.1,0.15,0,2,0,0,0,0,536,16,N/A,0,0,35,536,16,184,0,,NaN,NaN,NaN,NaN,NaN,NaN,12,1,2020-11-10_09h26.05.454,Pirates_expt3,2020.1.2,MacIntel,60,NaN,NaN,NaN,NaN,NaN,NaN,NaN,,NaN,NaN,NaN,NaN,NaN,NaN,,NaN,NaN,NaN,NaN,NaN,NaN,"",,NaN,4,0,4,0,1,3,200,0,200,0,1,199,k,1.805905,NaN,NaN,NaN,NaN,NaN,NaN,,NaN,,NaN,,NaN
NaN,NaN,NaN,NaN,NaN,"",NaN,NaN,"",NaN,NaN,1,2,33,3,92,60,97,0.1,0.05,0.15,0.15,60,92,97,0.05,0.1,0.15,2,3,0,0,97,97,536,16,space,5.636445,0,33,536,16,184,0,,NaN,NaN,NaN,NaN,NaN,NaN,12,1,2020-11-10_09h26.05.454,Pirates_expt3,2020.1.2,MacIntel,60,NaN,NaN,NaN,NaN,NaN,NaN,NaN,,NaN,NaN,NaN,NaN,NaN,NaN,,NaN,NaN,NaN,NaN,NaN,NaN,"",,NaN,4,0,4,0,1,3,200,0,200,0,1,199,,NaN,200,0,200,0,1,199,,NaN,,NaN,,NaN
NaN,NaN,NaN,NaN,NaN,"",NaN,NaN,"",NaN,NaN,1,2,37,3,92,62,97,0.1,0.05,0.15,0.15,62,92,97,0.05,0.1,0.15,0,4,0,0,97,97,634,17,0,0,0,37,634,17,183,0,,NaN,NaN,NaN,NaN,NaN,NaN,12,1,2020-11-10_09h26.05.454,Pirates_expt3,2020.1.2,MacIntel,60,NaN,NaN,NaN,NaN,NaN,NaN,NaN,,NaN,NaN,NaN,NaN,NaN,NaN,,NaN,NaN,NaN,NaN,NaN,NaN,"",,NaN,4,0,4,0,1,3,200,0,200,0,1,199,,NaN,200,0,200,0,1,199,space,5.636445,,NaN,,NaN
NaN,NaN,NaN,NaN,NaN,"",NaN,NaN,"",NaN,NaN,NaN,NaN,NaN,NaN,NaN,NaN,NaN,NaN,NaN,NaN,NaN,NaN,NaN,NaN,NaN,NaN,NaN,NaN,NaN,,NaN,NaN,NaN,NaN,NaN,,NaN,NaN,NaN,NaN,NaN,NaN,NaN,,NaN,NaN,NaN,NaN,NaN,NaN,12,1,2020-11-10_09h26.05.454,Pirates_expt3,2020.1.2,MacIntel,60,NaN,NaN,NaN,NaN,NaN,NaN,NaN,,NaN,NaN,NaN,NaN,NaN,NaN,,NaN,NaN,NaN,NaN,NaN,NaN,"",,NaN,NaN,NaN,NaN,NaN,NaN,NaN,NaN,NaN,NaN,NaN,NaN,NaN,,NaN,0,0,0,0,1,NaN,,NaN,,NaN,,NaN
NaN,NaN,NaN,NaN,NaN,"",NaN,NaN,"",NaN,NaN,1,2,37,3,92,62,92,0.1,0.05,0.15,0.15,62,92,92,0.05,0.1,0.15,3,3,0,0,92,92,634,17,s,1.270785,1,37,634,17,183,0,,NaN,NaN,NaN,NaN,NaN,NaN,12,1,2020-11-10_09h26.05.454,Pirates_expt3,2020.1.2,MacIntel,60,NaN,NaN,NaN,NaN,NaN,NaN,NaN,,NaN,NaN,NaN,NaN,NaN,NaN,,NaN,NaN,NaN,NaN,NaN,NaN,"",,NaN,4,0,4,0,1,3,200,0,200,0,1,199,,NaN,200,0,200,0,1,199,,NaN,,NaN,,NaN
NaN,NaN,NaN,NaN,NaN,"",NaN,NaN,"",NaN,NaN,1,2,35,3,93,64,93,0.1,0.05,0.15,0.15,64,93,93,0.05,0.1,0.15,0,4,0,0,93,92,634,18,0,0,0,35,634,18,182,8.5,,NaN,NaN,NaN,NaN,NaN,NaN,12,1,2020-11-10_09h26.05.454,Pirates_expt3,2020.1.2,MacIntel,60,NaN,NaN,NaN,NaN,NaN,NaN,NaN,,NaN,NaN,NaN,NaN,NaN,NaN,,NaN,NaN,NaN,NaN,NaN,NaN,"",,NaN,4,0,4,0,1,3,200,0,200,0,1,199,,NaN,200,0,200,0,1,199,s,1.270785,,NaN,,NaN
NaN,NaN,NaN,NaN,NaN,"",NaN,NaN,"",NaN,NaN,NaN,NaN,NaN,NaN,NaN,NaN,NaN,NaN,NaN,NaN,NaN,NaN,NaN,NaN,NaN,NaN,NaN,NaN,NaN,,NaN,NaN,NaN,NaN,NaN,,NaN,NaN,NaN,NaN,NaN,NaN,NaN,,NaN,NaN,NaN,NaN,NaN,NaN,12,1,2020-11-10_09h26.05.454,Pirates_expt3,2020.1.2,MacIntel,60,NaN,NaN,NaN,NaN,NaN,NaN,NaN,,NaN,NaN,NaN,NaN,NaN,NaN,,NaN,NaN,NaN,NaN,NaN,NaN,"",,NaN,NaN,NaN,NaN,NaN,NaN,NaN,4,0,4,0,1,NaN,,NaN,NaN,NaN,NaN,NaN,NaN,NaN,,NaN,,NaN,,NaN
NaN,NaN,NaN,NaN,NaN,"",NaN,NaN,"",NaN,NaN,1,2,35,1,93,64,93,0.1,0.05,0.15,0.1,64,93,93,0.05,0.1,0.15,1,1,f,1.61162,0,0,634,19,N/A,0,0,35,634,19,181,0,,NaN,NaN,NaN,NaN,NaN,NaN,12,1,2020-11-10_09h26.05.454,Pirates_expt3,2020.1.2,MacIntel,60,NaN,NaN,NaN,NaN,NaN,NaN,NaN,,NaN,NaN,NaN,NaN,NaN,NaN,,NaN,NaN,NaN,NaN,NaN,NaN,"",,NaN,4,0,4,0,1,3,200,0,200,0,1,199,,NaN,NaN,NaN,NaN,NaN,NaN,NaN,,NaN,,NaN,,NaN
NaN,NaN,NaN,NaN,NaN,"",NaN,NaN,"",NaN,NaN,1,2,35,1,94,65,94,0.1,0.05,0.15,0.1,65,94,94,0.05,0.1,0.15,0,2,0,0,0,0,634,19,N/A,0,0,35,634,19,181,0,,NaN,NaN,NaN,NaN,NaN,NaN,12,1,2020-11-10_09h26.05.454,Pirates_expt3,2020.1.2,MacIntel,60,NaN,NaN,NaN,NaN,NaN,NaN,NaN,,NaN,NaN,NaN,NaN,NaN,NaN,,NaN,NaN,NaN,NaN,NaN,NaN,"",,NaN,4,0,4,0,1,3,200,0,200,0,1,199,f,1.61162,NaN,NaN,NaN,NaN,NaN,NaN,,NaN,,NaN,,NaN
NaN,NaN,NaN,NaN,NaN,"",NaN,NaN,"",NaN,NaN,1,2,33,1,94,65,94,0.1,0.05,0.15,0.1,65,94,94,0.05,0.1,0.15,2,3,0,0,94,94,634,19,space,0.63644,0,33,634,19,181,0,,NaN,NaN,NaN,NaN,NaN,NaN,12,1,2020-11-10_09h26.05.454,Pirates_expt3,2020.1.2,MacIntel,60,NaN,NaN,NaN,NaN,NaN,NaN,NaN,,NaN,NaN,NaN,NaN,NaN,NaN,,NaN,NaN,NaN,NaN,NaN,NaN,"",,NaN,4,0,4,0,1,3,200,0,200,0,1,199,,NaN,200,0,200,0,1,199,,NaN,,NaN,,NaN
NaN,NaN,NaN,NaN,NaN,"",NaN,NaN,"",NaN,NaN,1,2,36,1,94,67,95,0.1,0.05,0.15,0.1,67,94,95,0.05,0.1,0.15,0,4,0,0,94,94,728,20,0,0,0,36,728,20,180,0,,NaN,NaN,NaN,NaN,NaN,NaN,12,1,2020-11-10_09h26.05.454,Pirates_expt3,2020.1.2,MacIntel,60,NaN,NaN,NaN,NaN,NaN,NaN,NaN,,NaN,NaN,NaN,NaN,NaN,NaN,,NaN,NaN,NaN,NaN,NaN,NaN,"",,NaN,4,0,4,0,1,3,200,0,200,0,1,199,,NaN,200,0,200,0,1,199,space,0.63644,,NaN,,NaN
NaN,NaN,NaN,NaN,NaN,"",NaN,NaN,"",NaN,NaN,NaN,NaN,NaN,NaN,NaN,NaN,NaN,NaN,NaN,NaN,NaN,NaN,NaN,NaN,NaN,NaN,NaN,NaN,NaN,,NaN,NaN,NaN,NaN,NaN,,NaN,NaN,NaN,NaN,NaN,NaN,NaN,,NaN,NaN,NaN,NaN,NaN,NaN,12,1,2020-11-10_09h26.05.454,Pirates_expt3,2020.1.2,MacIntel,60,NaN,NaN,NaN,NaN,NaN,NaN,NaN,,NaN,NaN,NaN,NaN,NaN,NaN,,NaN,NaN,NaN,NaN,NaN,NaN,"",,NaN,NaN,NaN,NaN,NaN,NaN,NaN,NaN,NaN,NaN,NaN,NaN,NaN,,NaN,0,0,0,0,1,NaN,,NaN,,NaN,,NaN
NaN,NaN,NaN,NaN,NaN,"",NaN,NaN,"",NaN,NaN,1,2,36,1,89,67,95,0.1,0.05,0.15,0.1,67,89,95,0.05,0.1,0.15,3,3,0,0,89,89,728,20,s,0.05968,1,36,728,20,180,0,,NaN,NaN,NaN,NaN,NaN,NaN,12,1,2020-11-10_09h26.05.454,Pirates_expt3,2020.1.2,MacIntel,60,NaN,NaN,NaN,NaN,NaN,NaN,NaN,,NaN,NaN,NaN,NaN,NaN,NaN,,NaN,NaN,NaN,NaN,NaN,NaN,"",,NaN,4,0,4,0,1,3,200,0,200,0,1,199,,NaN,200,0,200,0,1,199,,NaN,,NaN,,NaN
NaN,NaN,NaN,NaN,NaN,"",NaN,NaN,"",NaN,NaN,1,2,34,1,90,69,96,0.1,0.05,0.15,0.1,69,90,96,0.05,0.1,0.15,0,4,0,0,90,89,728,21,0,0,0,34,728,21,179,2.284,,NaN,NaN,NaN,NaN,NaN,NaN,12,1,2020-11-10_09h26.05.454,Pirates_expt3,2020.1.2,MacIntel,60,NaN,NaN,NaN,NaN,NaN,NaN,NaN,,NaN,NaN,NaN,NaN,NaN,NaN,,NaN,NaN,NaN,NaN,NaN,NaN,"",,NaN,4,0,4,0,1,3,200,0,200,0,1,199,,NaN,200,0,200,0,1,199,s,0.05968,,NaN,,NaN
NaN,NaN,NaN,NaN,NaN,"",NaN,NaN,"",NaN,NaN,NaN,NaN,NaN,NaN,NaN,NaN,NaN,NaN,NaN,NaN,NaN,NaN,NaN,NaN,NaN,NaN,NaN,NaN,NaN,,NaN,NaN,NaN,NaN,NaN,,NaN,NaN,NaN,NaN,NaN,NaN,NaN,,NaN,NaN,NaN,NaN,NaN,NaN,12,1,2020-11-10_09h26.05.454,Pirates_expt3,2020.1.2,MacIntel,60,NaN,NaN,NaN,NaN,NaN,NaN,NaN,,NaN,NaN,NaN,NaN,NaN,NaN,,NaN,NaN,NaN,NaN,NaN,NaN,"",,NaN,NaN,NaN,NaN,NaN,NaN,NaN,5,0,5,0,1,NaN,,NaN,NaN,NaN,NaN,NaN,NaN,NaN,,NaN,,NaN,,NaN
NaN,NaN,NaN,NaN,NaN,"",NaN,NaN,"",NaN,NaN,1,2,34,2,90,69,96,0.1,0.05,0.15,0.05,69,90,96,0.05,0.1,0.15,1,1,j,1.395305,0,0,728,22,N/A,0,0,34,728,22,178,0,,NaN,NaN,NaN,NaN,NaN,NaN,12,1,2020-11-10_09h26.05.454,Pirates_expt3,2020.1.2,MacIntel,60,NaN,NaN,NaN,NaN,NaN,NaN,NaN,,NaN,NaN,NaN,NaN,NaN,NaN,,NaN,NaN,NaN,NaN,NaN,NaN,"",,NaN,4,0,4,0,1,3,200,0,200,0,1,199,,NaN,NaN,NaN,NaN,NaN,NaN,NaN,,NaN,,NaN,,NaN
NaN,NaN,NaN,NaN,NaN,"",NaN,NaN,"",NaN,NaN,1,2,34,2,91,70,96,0.1,0.05,0.15,0.05,70,91,96,0.05,0.1,0.15,0,2,0,0,0,0,728,22,N/A,0,0,34,728,22,178,0,,NaN,NaN,NaN,NaN,NaN,NaN,12,1,2020-11-10_09h26.05.454,Pirates_expt3,2020.1.2,MacIntel,60,NaN,NaN,NaN,NaN,NaN,NaN,NaN,,NaN,NaN,NaN,NaN,NaN,NaN,,NaN,NaN,NaN,NaN,NaN,NaN,"",,NaN,4,0,4,0,1,3,200,0,200,0,1,199,j,1.395305,NaN,NaN,NaN,NaN,NaN,NaN,,NaN,,NaN,,NaN
NaN,NaN,NaN,NaN,NaN,"",NaN,NaN,"",NaN,NaN,1,2,33,2,91,70,96,0.1,0.05,0.15,0.05,70,91,96,0.05,0.1,0.15,2,3,0,0,70,70,728,22,space,0.59882,0,33,728,22,178,0,,NaN,NaN,NaN,NaN,NaN,NaN,12,1,2020-11-10_09h26.05.454,Pirates_expt3,2020.1.2,MacIntel,60,NaN,NaN,NaN,NaN,NaN,NaN,NaN,,NaN,NaN,NaN,NaN,NaN,NaN,,NaN,NaN,NaN,NaN,NaN,NaN,"",,NaN,4,0,4,0,1,3,200,0,200,0,1,199,,NaN,200,0,200,0,1,199,,NaN,,NaN,,NaN
NaN,NaN,NaN,NaN,NaN,"",NaN,NaN,"",NaN,NaN,1,2,34,2,92,70,97,0.1,0.05,0.15,0.05,70,92,97,0.05,0.1,0.15,0,4,0,0,70,70,799,23,0,0,0,34,799,23,177,0,,NaN,NaN,NaN,NaN,NaN,NaN,12,1,2020-11-10_09h26.05.454,Pirates_expt3,2020.1.2,MacIntel,60,NaN,NaN,NaN,NaN,NaN,NaN,NaN,,NaN,NaN,NaN,NaN,NaN,NaN,,NaN,NaN,NaN,NaN,NaN,NaN,"",,NaN,4,0,4,0,1,3,200,0,200,0,1,199,,NaN,200,0,200,0,1,199,space,0.59882,,NaN,,NaN
NaN,NaN,NaN,NaN,NaN,"",NaN,NaN,"",NaN,NaN,NaN,NaN,NaN,NaN,NaN,NaN,NaN,NaN,NaN,NaN,NaN,NaN,NaN,NaN,NaN,NaN,NaN,NaN,NaN,,NaN,NaN,NaN,NaN,NaN,,NaN,NaN,NaN,NaN,NaN,NaN,NaN,,NaN,NaN,NaN,NaN,NaN,NaN,12,1,2020-11-10_09h26.05.454,Pirates_expt3,2020.1.2,MacIntel,60,NaN,NaN,NaN,NaN,NaN,NaN,NaN,,NaN,NaN,NaN,NaN,NaN,NaN,,NaN,NaN,NaN,NaN,NaN,NaN,"",,NaN,NaN,NaN,NaN,NaN,NaN,NaN,NaN,NaN,NaN,NaN,NaN,NaN,,NaN,0,0,0,0,1,NaN,,NaN,,NaN,,NaN
NaN,NaN,NaN,NaN,NaN,"",NaN,NaN,"",NaN,NaN,1,2,34,2,92,67,97,0.1,0.05,0.15,0.05,67,92,97,0.05,0.1,0.15,3,3,0,0,67,67,799,23,s,3.254205,1,34,799,23,177,0,,NaN,NaN,NaN,NaN,NaN,NaN,12,1,2020-11-10_09h26.05.454,Pirates_expt3,2020.1.2,MacIntel,60,NaN,NaN,NaN,NaN,NaN,NaN,NaN,,NaN,NaN,NaN,NaN,NaN,NaN,,NaN,NaN,NaN,NaN,NaN,NaN,"",,NaN,4,0,4,0,1,3,200,0,200,0,1,199,,NaN,200,0,200,0,1,199,,NaN,,NaN,,NaN
NaN,NaN,NaN,NaN,NaN,"",NaN,NaN,"",NaN,NaN,1,2,33,2,93,68,97,0.1,0.05,0.15,0.05,68,93,97,0.05,0.1,0.15,0,4,0,0,68,67,799,24,0,0,0,33,799,24,176,5.449,,NaN,NaN,NaN,NaN,NaN,NaN,12,1,2020-11-10_09h26.05.454,Pirates_expt3,2020.1.2,MacIntel,60,NaN,NaN,NaN,NaN,NaN,NaN,NaN,,NaN,NaN,NaN,NaN,NaN,NaN,,NaN,NaN,NaN,NaN,NaN,NaN,"",,NaN,4,0,4,0,1,3,200,0,200,0,1,199,,NaN,200,0,200,0,1,199,s,3.254205,,NaN,,NaN
NaN,NaN,NaN,NaN,NaN,"",NaN,NaN,"",NaN,NaN,NaN,NaN,NaN,NaN,NaN,NaN,NaN,NaN,NaN,NaN,NaN,NaN,NaN,NaN,NaN,NaN,NaN,NaN,NaN,,NaN,NaN,NaN,NaN,NaN,,NaN,NaN,NaN,NaN,NaN,NaN,NaN,,NaN,NaN,NaN,NaN,NaN,NaN,12,1,2020-11-10_09h26.05.454,Pirates_expt3,2020.1.2,MacIntel,60,NaN,NaN,NaN,NaN,NaN,NaN,NaN,,NaN,NaN,NaN,NaN,NaN,NaN,,NaN,NaN,NaN,NaN,NaN,NaN,"",,NaN,NaN,NaN,NaN,NaN,NaN,NaN,6,0,6,0,1,NaN,,NaN,NaN,NaN,NaN,NaN,NaN,NaN,,NaN,,NaN,,NaN
NaN,NaN,NaN,NaN,NaN,"",NaN,NaN,"",NaN,NaN,1,2,33,3,93,68,97,0.1,0.05,0.15,0.15,68,93,97,0.05,0.1,0.15,1,1,k,1.325785,0,0,799,25,N/A,0,0,33,799,25,175,0,,NaN,NaN,NaN,NaN,NaN,NaN,12,1,2020-11-10_09h26.05.454,Pirates_expt3,2020.1.2,MacIntel,60,NaN,NaN,NaN,NaN,NaN,NaN,NaN,,NaN,NaN,NaN,NaN,NaN,NaN,,NaN,NaN,NaN,NaN,NaN,NaN,"",,NaN,4,0,4,0,1,3,200,0,200,0,1,199,,NaN,NaN,NaN,NaN,NaN,NaN,NaN,,NaN,,NaN,,NaN
NaN,NaN,NaN,NaN,NaN,"",NaN,NaN,"",NaN,NaN,1,2,33,3,93,70,97,0.1,0.05,0.15,0.15,70,93,97,0.05,0.1,0.15,0,2,0,0,0,0,799,25,N/A,0,0,33,799,25,175,0,,NaN,NaN,NaN,NaN,NaN,NaN,12,1,2020-11-10_09h26.05.454,Pirates_expt3,2020.1.2,MacIntel,60,NaN,NaN,NaN,NaN,NaN,NaN,NaN,,NaN,NaN,NaN,NaN,NaN,NaN,,NaN,NaN,NaN,NaN,NaN,NaN,"",,NaN,4,0,4,0,1,3,200,0,200,0,1,199,k,1.325785,NaN,NaN,NaN,NaN,NaN,NaN,,NaN,,NaN,,NaN
NaN,NaN,NaN,NaN,NaN,"",NaN,NaN,"",NaN,NaN,1,2,31,3,93,70,97,0.1,0.05,0.15,0.15,70,93,97,0.05,0.1,0.15,2,3,0,0,97,97,799,25,space,0.820555,0,31,799,25,175,0,,NaN,NaN,NaN,NaN,NaN,NaN,12,1,2020-11-10_09h26.05.454,Pirates_expt3,2020.1.2,MacIntel,60,NaN,NaN,NaN,NaN,NaN,NaN,NaN,,NaN,NaN,NaN,NaN,NaN,NaN,,NaN,NaN,NaN,NaN,NaN,NaN,"",,NaN,4,0,4,0,1,3,200,0,200,0,1,199,,NaN,200,0,200,0,1,199,,NaN,,NaN,,NaN
NaN,NaN,NaN,NaN,NaN,"",NaN,NaN,"",NaN,NaN,1,2,34,3,94,71,97,0.1,0.05,0.15,0.15,71,94,97,0.05,0.1,0.15,0,4,0,0,97,97,896,26,0,0,0,34,896,26,174,0,,NaN,NaN,NaN,NaN,NaN,NaN,12,1,2020-11-10_09h26.05.454,Pirates_expt3,2020.1.2,MacIntel,60,NaN,NaN,NaN,NaN,NaN,NaN,NaN,,NaN,NaN,NaN,NaN,NaN,NaN,,NaN,NaN,NaN,NaN,NaN,NaN,"",,NaN,4,0,4,0,1,3,200,0,200,0,1,199,,NaN,200,0,200,0,1,199,space,0.820555,,NaN,,NaN
NaN,NaN,NaN,NaN,NaN,"",NaN,NaN,"",NaN,NaN,NaN,NaN,NaN,NaN,NaN,NaN,NaN,NaN,NaN,NaN,NaN,NaN,NaN,NaN,NaN,NaN,NaN,NaN,NaN,,NaN,NaN,NaN,NaN,NaN,,NaN,NaN,NaN,NaN,NaN,NaN,NaN,,NaN,NaN,NaN,NaN,NaN,NaN,12,1,2020-11-10_09h26.05.454,Pirates_expt3,2020.1.2,MacIntel,60,NaN,NaN,NaN,NaN,NaN,NaN,NaN,,NaN,NaN,NaN,NaN,NaN,NaN,,NaN,NaN,NaN,NaN,NaN,NaN,"",,NaN,NaN,NaN,NaN,NaN,NaN,NaN,NaN,NaN,NaN,NaN,NaN,NaN,,NaN,0,0,0,0,1,NaN,,NaN,,NaN,,NaN
NaN,NaN,NaN,NaN,NaN,"",NaN,NaN,"",NaN,NaN,1,2,34,3,94,71,93,0.1,0.05,0.15,0.15,71,94,93,0.05,0.1,0.15,2,3,0,0,93,93,896,26,space,3.469405,0,34,896,26,174,0,,NaN,NaN,NaN,NaN,NaN,NaN,12,1,2020-11-10_09h26.05.454,Pirates_expt3,2020.1.2,MacIntel,60,NaN,NaN,NaN,NaN,NaN,NaN,NaN,,NaN,NaN,NaN,NaN,NaN,NaN,,NaN,NaN,NaN,NaN,NaN,NaN,"",,NaN,4,0,4,0,1,3,200,0,200,0,1,199,,NaN,200,0,200,0,1,199,,NaN,,NaN,,NaN
NaN,NaN,NaN,NaN,NaN,"",NaN,NaN,"",NaN,NaN,1,2,36,3,95,73,93,0.1,0.05,0.15,0.15,73,95,93,0.05,0.1,0.15,0,4,0,0,93,93,990,27,0,0,0,36,990,27,173,0,,NaN,NaN,NaN,NaN,NaN,NaN,12,1,2020-11-10_09h26.05.454,Pirates_expt3,2020.1.2,MacIntel,60,NaN,NaN,NaN,NaN,NaN,NaN,NaN,,NaN,NaN,NaN,NaN,NaN,NaN,,NaN,NaN,NaN,NaN,NaN,NaN,"",,NaN,4,0,4,0,1,3,200,0,200,0,1,199,,NaN,200,0,200,0,1,199,space,3.469405,,NaN,,NaN
NaN,NaN,NaN,NaN,NaN,"",NaN,NaN,"",NaN,NaN,NaN,NaN,NaN,NaN,NaN,NaN,NaN,NaN,NaN,NaN,NaN,NaN,NaN,NaN,NaN,NaN,NaN,NaN,NaN,,NaN,NaN,NaN,NaN,NaN,,NaN,NaN,NaN,NaN,NaN,NaN,NaN,,NaN,NaN,NaN,NaN,NaN,NaN,12,1,2020-11-10_09h26.05.454,Pirates_expt3,2020.1.2,MacIntel,60,NaN,NaN,NaN,NaN,NaN,NaN,NaN,,NaN,NaN,NaN,NaN,NaN,NaN,,NaN,NaN,NaN,NaN,NaN,NaN,"",,NaN,NaN,NaN,NaN,NaN,NaN,NaN,NaN,NaN,NaN,NaN,NaN,NaN,,NaN,1,0,1,0,1,NaN,,NaN,,NaN,,NaN
NaN,NaN,NaN,NaN,NaN,"",NaN,NaN,"",NaN,NaN,1,2,36,3,95,73,83,0.1,0.05,0.15,0.15,73,95,83,0.05,0.1,0.15,3,3,0,0,83,83,990,27,s,0.855205,2,36,990,27,173,0,,NaN,NaN,NaN,NaN,NaN,NaN,12,1,2020-11-10_09h26.05.454,Pirates_expt3,2020.1.2,MacIntel,60,NaN,NaN,NaN,NaN,NaN,NaN,NaN,,NaN,NaN,NaN,NaN,NaN,NaN,,NaN,NaN,NaN,NaN,NaN,NaN,"",,NaN,4,0,4,0,1,3,200,0,200,0,1,199,,NaN,200,0,200,0,1,199,,NaN,,NaN,,NaN
NaN,NaN,NaN,NaN,NaN,"",NaN,NaN,"",NaN,NaN,1,2,35,3,95,74,86,0.1,0.05,0.15,0.15,74,95,86,0.05,0.1,0.15,0,4,0,0,86,83,990,28,0,0,0,35,990,28,172,8.285,,NaN,NaN,NaN,NaN,NaN,NaN,12,1,2020-11-10_09h26.05.454,Pirates_expt3,2020.1.2,MacIntel,60,NaN,NaN,NaN,NaN,NaN,NaN,NaN,,NaN,NaN,NaN,NaN,NaN,NaN,,NaN,NaN,NaN,NaN,NaN,NaN,"",,NaN,4,0,4,0,1,3,200,0,200,0,1,199,,NaN,200,0,200,0,1,199,s,0.855205,,NaN,,NaN
NaN,NaN,NaN,NaN,NaN,"",NaN,NaN,"",NaN,NaN,NaN,NaN,NaN,NaN,NaN,NaN,NaN,NaN,NaN,NaN,NaN,NaN,NaN,NaN,NaN,NaN,NaN,NaN,NaN,,NaN,NaN,NaN,NaN,NaN,,NaN,NaN,NaN,NaN,NaN,NaN,NaN,,NaN,NaN,NaN,NaN,NaN,NaN,12,1,2020-11-10_09h26.05.454,Pirates_expt3,2020.1.2,MacIntel,60,NaN,NaN,NaN,NaN,NaN,NaN,NaN,,NaN,NaN,NaN,NaN,NaN,NaN,,NaN,NaN,NaN,NaN,NaN,NaN,"",,NaN,NaN,NaN,NaN,NaN,NaN,NaN,7,0,7,0,1,NaN,,NaN,NaN,NaN,NaN,NaN,NaN,NaN,,NaN,,NaN,,NaN
NaN,NaN,NaN,NaN,NaN,"",NaN,NaN,"",NaN,NaN,1,2,35,1,95,74,86,0.1,0.05,0.15,0.1,74,95,86,0.05,0.1,0.15,1,1,f,1.666445,0,0,990,29,N/A,0,0,35,990,29,171,0,,NaN,NaN,NaN,NaN,NaN,NaN,12,1,2020-11-10_09h26.05.454,Pirates_expt3,2020.1.2,MacIntel,60,NaN,NaN,NaN,NaN,NaN,NaN,NaN,,NaN,NaN,NaN,NaN,NaN,NaN,,NaN,NaN,NaN,NaN,NaN,NaN,"",,NaN,4,0,4,0,1,3,200,0,200,0,1,199,,NaN,NaN,NaN,NaN,NaN,NaN,NaN,,NaN,,NaN,,NaN
NaN,NaN,NaN,NaN,NaN,"",NaN,NaN,"",NaN,NaN,1,2,35,1,95,75,88,0.1,0.05,0.15,0.1,75,95,88,0.05,0.1,0.15,0,2,0,0,0,0,990,29,N/A,0,0,35,990,29,171,0,,NaN,NaN,NaN,NaN,NaN,NaN,12,1,2020-11-10_09h26.05.454,Pirates_expt3,2020.1.2,MacIntel,60,NaN,NaN,NaN,NaN,NaN,NaN,NaN,,NaN,NaN,NaN,NaN,NaN,NaN,,NaN,NaN,NaN,NaN,NaN,NaN,"",,NaN,4,0,4,0,1,3,200,0,200,0,1,199,f,1.666445,NaN,NaN,NaN,NaN,NaN,NaN,,NaN,,NaN,,NaN
NaN,NaN,NaN,NaN,NaN,"",NaN,NaN,"",NaN,NaN,1,2,34,1,95,75,88,0.1,0.05,0.15,0.1,75,95,88,0.05,0.1,0.15,2,3,0,0,95,95,990,29,space,0.537005,0,34,990,29,171,0,,NaN,NaN,NaN,NaN,NaN,NaN,12,1,2020-11-10_09h26.05.454,Pirates_expt3,2020.1.2,MacIntel,60,NaN,NaN,NaN,NaN,NaN,NaN,NaN,,NaN,NaN,NaN,NaN,NaN,NaN,,NaN,NaN,NaN,NaN,NaN,NaN,"",,NaN,4,0,4,0,1,3,200,0,200,0,1,199,,NaN,200,0,200,0,1,199,,NaN,,NaN,,NaN
NaN,NaN,NaN,NaN,NaN,"",NaN,NaN,"",NaN,NaN,1,2,36,1,95,77,90,0.1,0.05,0.15,0.1,77,95,90,0.05,0.1,0.15,0,4,0,0,95,95,1085,30,0,0,0,36,1085,30,170,0,,NaN,NaN,NaN,NaN,NaN,NaN,12,1,2020-11-10_09h26.05.454,Pirates_expt3,2020.1.2,MacIntel,60,NaN,NaN,NaN,NaN,NaN,NaN,NaN,,NaN,NaN,NaN,NaN,NaN,NaN,,NaN,NaN,NaN,NaN,NaN,NaN,"",,NaN,4,0,4,0,1,3,200,0,200,0,1,199,,NaN,200,0,200,0,1,199,space,0.537005,,NaN,,NaN
NaN,NaN,NaN,NaN,NaN,"",NaN,NaN,"",NaN,NaN,NaN,NaN,NaN,NaN,NaN,NaN,NaN,NaN,NaN,NaN,NaN,NaN,NaN,NaN,NaN,NaN,NaN,NaN,NaN,,NaN,NaN,NaN,NaN,NaN,,NaN,NaN,NaN,NaN,NaN,NaN,NaN,,NaN,NaN,NaN,NaN,NaN,NaN,12,1,2020-11-10_09h26.05.454,Pirates_expt3,2020.1.2,MacIntel,60,NaN,NaN,NaN,NaN,NaN,NaN,NaN,,NaN,NaN,NaN,NaN,NaN,NaN,,NaN,NaN,NaN,NaN,NaN,NaN,"",,NaN,NaN,NaN,NaN,NaN,NaN,NaN,NaN,NaN,NaN,NaN,NaN,NaN,,NaN,0,0,0,0,1,NaN,,NaN,,NaN,,NaN
NaN,NaN,NaN,NaN,NaN,"",NaN,NaN,"",NaN,NaN,1,2,36,1,91,77,90,0.1,0.05,0.15,0.1,77,91,90,0.05,0.1,0.15,3,3,0,0,91,91,1085,30,s,3.34576,1,36,1085,30,170,0,,NaN,NaN,NaN,NaN,NaN,NaN,12,1,2020-11-10_09h26.05.454,Pirates_expt3,2020.1.2,MacIntel,60,NaN,NaN,NaN,NaN,NaN,NaN,NaN,,NaN,NaN,NaN,NaN,NaN,NaN,,NaN,NaN,NaN,NaN,NaN,NaN,"",,NaN,4,0,4,0,1,3,200,0,200,0,1,199,,NaN,200,0,200,0,1,199,,NaN,,NaN,,NaN
NaN,NaN,NaN,NaN,NaN,"",NaN,NaN,"",NaN,NaN,1,2,35,1,92,78,91,0.1,0.05,0.15,0.1,78,92,91,0.05,0.1,0.15,0,4,0,0,92,91,1085,31,0,0,0,35,1085,31,169,5.465,,NaN,NaN,NaN,NaN,NaN,NaN,12,1,2020-11-10_09h26.05.454,Pirates_expt3,2020.1.2,MacIntel,60,NaN,NaN,NaN,NaN,NaN,NaN,NaN,,NaN,NaN,NaN,NaN,NaN,NaN,,NaN,NaN,NaN,NaN,NaN,NaN,"",,NaN,4,0,4,0,1,3,200,0,200,0,1,199,,NaN,200,0,200,0,1,199,s,3.34576,,NaN,,NaN
NaN,NaN,NaN,NaN,NaN,"",NaN,NaN,"",NaN,NaN,NaN,NaN,NaN,NaN,NaN,NaN,NaN,NaN,NaN,NaN,NaN,NaN,NaN,NaN,NaN,NaN,NaN,NaN,NaN,,NaN,NaN,NaN,NaN,NaN,,NaN,NaN,NaN,NaN,NaN,NaN,NaN,,NaN,NaN,NaN,NaN,NaN,NaN,12,1,2020-11-10_09h26.05.454,Pirates_expt3,2020.1.2,MacIntel,60,NaN,NaN,NaN,NaN,NaN,NaN,NaN,,NaN,NaN,NaN,NaN,NaN,NaN,,NaN,NaN,NaN,NaN,NaN,NaN,"",,NaN,NaN,NaN,NaN,NaN,NaN,NaN,8,0,8,0,1,NaN,,NaN,NaN,NaN,NaN,NaN,NaN,NaN,,NaN,,NaN,,NaN
NaN,NaN,NaN,NaN,NaN,"",NaN,NaN,"",NaN,NaN,1,2,35,2,92,78,91,0.1,0.05,0.15,0.05,78,92,91,0.05,0.1,0.15,1,1,j,1.391045,0,0,1085,32,N/A,0,0,35,1085,32,168,0,,NaN,NaN,NaN,NaN,NaN,NaN,12,1,2020-11-10_09h26.05.454,Pirates_expt3,2020.1.2,MacIntel,60,NaN,NaN,NaN,NaN,NaN,NaN,NaN,,NaN,NaN,NaN,NaN,NaN,NaN,,NaN,NaN,NaN,NaN,NaN,NaN,"",,NaN,4,0,4,0,1,3,200,0,200,0,1,199,,NaN,NaN,NaN,NaN,NaN,NaN,NaN,,NaN,,NaN,,NaN
NaN,NaN,NaN,NaN,NaN,"",NaN,NaN,"",NaN,NaN,1,2,35,2,92,79,92,0.1,0.05,0.15,0.05,79,92,92,0.05,0.1,0.15,0,2,0,0,0,0,1085,32,N/A,0,0,35,1085,32,168,0,,NaN,NaN,NaN,NaN,NaN,NaN,12,1,2020-11-10_09h26.05.454,Pirates_expt3,2020.1.2,MacIntel,60,NaN,NaN,NaN,NaN,NaN,NaN,NaN,,NaN,NaN,NaN,NaN,NaN,NaN,,NaN,NaN,NaN,NaN,NaN,NaN,"",,NaN,4,0,4,0,1,3,200,0,200,0,1,199,j,1.391045,NaN,NaN,NaN,NaN,NaN,NaN,,NaN,,NaN,,NaN
NaN,NaN,NaN,NaN,NaN,"",NaN,NaN,"",NaN,NaN,1,2,33,2,92,79,92,0.1,0.05,0.15,0.05,79,92,92,0.05,0.1,0.15,2,3,0,0,79,79,1085,32,space,0.99985,0,33,1085,32,168,0,,NaN,NaN,NaN,NaN,NaN,NaN,12,1,2020-11-10_09h26.05.454,Pirates_expt3,2020.1.2,MacIntel,60,NaN,NaN,NaN,NaN,NaN,NaN,NaN,,NaN,NaN,NaN,NaN,NaN,NaN,,NaN,NaN,NaN,NaN,NaN,NaN,"",,NaN,4,0,4,0,1,3,200,0,200,0,1,199,,NaN,200,0,200,0,1,199,,NaN,,NaN,,NaN
NaN,NaN,NaN,NaN,NaN,"",NaN,NaN,"",NaN,NaN,1,2,35,2,93,79,93,0.1,0.05,0.15,0.05,79,93,93,0.05,0.1,0.15,0,4,0,0,79,79,1165,33,0,0,0,35,1165,33,167,0,,NaN,NaN,NaN,NaN,NaN,NaN,12,1,2020-11-10_09h26.05.454,Pirates_expt3,2020.1.2,MacIntel,60,NaN,NaN,NaN,NaN,NaN,NaN,NaN,,NaN,NaN,NaN,NaN,NaN,NaN,,NaN,NaN,NaN,NaN,NaN,NaN,"",,NaN,4,0,4,0,1,3,200,0,200,0,1,199,,NaN,200,0,200,0,1,199,space,0.99985,,NaN,,NaN
NaN,NaN,NaN,NaN,NaN,"",NaN,NaN,"",NaN,NaN,NaN,NaN,NaN,NaN,NaN,NaN,NaN,NaN,NaN,NaN,NaN,NaN,NaN,NaN,NaN,NaN,NaN,NaN,NaN,,NaN,NaN,NaN,NaN,NaN,,NaN,NaN,NaN,NaN,NaN,NaN,NaN,,NaN,NaN,NaN,NaN,NaN,NaN,12,1,2020-11-10_09h26.05.454,Pirates_expt3,2020.1.2,MacIntel,60,NaN,NaN,NaN,NaN,NaN,NaN,NaN,,NaN,NaN,NaN,NaN,NaN,NaN,,NaN,NaN,NaN,NaN,NaN,NaN,"",,NaN,NaN,NaN,NaN,NaN,NaN,NaN,NaN,NaN,NaN,NaN,NaN,NaN,,NaN,0,0,0,0,1,NaN,,NaN,,NaN,,NaN
NaN,NaN,NaN,NaN,NaN,"",NaN,NaN,"",NaN,NaN,1,2,35,2,93,75,93,0.1,0.05,0.15,0.05,75,93,93,0.05,0.1,0.15,3,3,0,0,75,75,1165,33,s,0.12128,1,35,1165,33,167,0,,NaN,NaN,NaN,NaN,NaN,NaN,12,1,2020-11-10_09h26.05.454,Pirates_expt3,2020.1.2,MacIntel,60,NaN,NaN,NaN,NaN,NaN,NaN,NaN,,NaN,NaN,NaN,NaN,NaN,NaN,,NaN,NaN,NaN,NaN,NaN,NaN,"",,NaN,4,0,4,0,1,3,200,0,200,0,1,199,,NaN,200,0,200,0,1,199,,NaN,,NaN,,NaN
NaN,NaN,NaN,NaN,NaN,"",NaN,NaN,"",NaN,NaN,1,2,34,2,94,76,94,0.1,0.05,0.15,0.05,76,94,94,0.05,0.1,0.15,0,4,0,0,76,75,1165,34,0,0,0,34,1165,34,166,2.717,,NaN,NaN,NaN,NaN,NaN,NaN,12,1,2020-11-10_09h26.05.454,Pirates_expt3,2020.1.2,MacIntel,60,NaN,NaN,NaN,NaN,NaN,NaN,NaN,,NaN,NaN,NaN,NaN,NaN,NaN,,NaN,NaN,NaN,NaN,NaN,NaN,"",,NaN,4,0,4,0,1,3,200,0,200,0,1,199,,NaN,200,0,200,0,1,199,s,0.12128,,NaN,,NaN
NaN,NaN,NaN,NaN,NaN,"",NaN,NaN,"",NaN,NaN,NaN,NaN,NaN,NaN,NaN,NaN,NaN,NaN,NaN,NaN,NaN,NaN,NaN,NaN,NaN,NaN,NaN,NaN,NaN,,NaN,NaN,NaN,NaN,NaN,,NaN,NaN,NaN,NaN,NaN,NaN,NaN,,NaN,NaN,NaN,NaN,NaN,NaN,12,1,2020-11-10_09h26.05.454,Pirates_expt3,2020.1.2,MacIntel,60,NaN,NaN,NaN,NaN,NaN,NaN,NaN,,NaN,NaN,NaN,NaN,NaN,NaN,,NaN,NaN,NaN,NaN,NaN,NaN,"",,NaN,NaN,NaN,NaN,NaN,NaN,NaN,9,0,9,0,1,NaN,,NaN,NaN,NaN,NaN,NaN,NaN,NaN,,NaN,,NaN,,NaN
NaN,NaN,NaN,NaN,NaN,"",NaN,NaN,"",NaN,NaN,1,2,34,3,94,76,94,0.1,0.05,0.15,0.15,76,94,94,0.05,0.1,0.15,1,1,k,1.544465,0,0,1165,35,N/A,0,0,34,1165,35,165,0,,NaN,NaN,NaN,NaN,NaN,NaN,12,1,2020-11-10_09h26.05.454,Pirates_expt3,2020.1.2,MacIntel,60,NaN,NaN,NaN,NaN,NaN,NaN,NaN,,NaN,NaN,NaN,NaN,NaN,NaN,,NaN,NaN,NaN,NaN,NaN,NaN,"",,NaN,4,0,4,0,1,3,200,0,200,0,1,199,,NaN,NaN,NaN,NaN,NaN,NaN,NaN,,NaN,,NaN,,NaN
NaN,NaN,NaN,NaN,NaN,"",NaN,NaN,"",NaN,NaN,1,2,34,3,94,77,95,0.1,0.05,0.15,0.15,77,94,95,0.05,0.1,0.15,0,2,0,0,0,0,1165,35,N/A,0,0,34,1165,35,165,0,,NaN,NaN,NaN,NaN,NaN,NaN,12,1,2020-11-10_09h26.05.454,Pirates_expt3,2020.1.2,MacIntel,60,NaN,NaN,NaN,NaN,NaN,NaN,NaN,,NaN,NaN,NaN,NaN,NaN,NaN,,NaN,NaN,NaN,NaN,NaN,NaN,"",,NaN,4,0,4,0,1,3,200,0,200,0,1,199,k,1.544465,NaN,NaN,NaN,NaN,NaN,NaN,,NaN,,NaN,,NaN
NaN,NaN,NaN,NaN,NaN,"",NaN,NaN,"",NaN,NaN,1,2,33,3,94,77,95,0.1,0.05,0.15,0.15,77,94,95,0.05,0.1,0.15,2,3,0,0,95,95,1165,35,space,0.48267,0,33,1165,35,165,0,,NaN,NaN,NaN,NaN,NaN,NaN,12,1,2020-11-10_09h26.05.454,Pirates_expt3,2020.1.2,MacIntel,60,NaN,NaN,NaN,NaN,NaN,NaN,NaN,,NaN,NaN,NaN,NaN,NaN,NaN,,NaN,NaN,NaN,NaN,NaN,NaN,"",,NaN,4,0,4,0,1,3,200,0,200,0,1,199,,NaN,200,0,200,0,1,199,,NaN,,NaN,,NaN
NaN,NaN,NaN,NaN,NaN,"",NaN,NaN,"",NaN,NaN,1,2,35,3,95,78,95,0.1,0.05,0.15,0.15,78,95,95,0.05,0.1,0.15,0,4,0,0,95,95,1260,36,0,0,0,35,1260,36,164,0,,NaN,NaN,NaN,NaN,NaN,NaN,12,1,2020-11-10_09h26.05.454,Pirates_expt3,2020.1.2,MacIntel,60,NaN,NaN,NaN,NaN,NaN,NaN,NaN,,NaN,NaN,NaN,NaN,NaN,NaN,,NaN,NaN,NaN,NaN,NaN,NaN,"",,NaN,4,0,4,0,1,3,200,0,200,0,1,199,,NaN,200,0,200,0,1,199,space,0.48267,,NaN,,NaN
NaN,NaN,NaN,NaN,NaN,"",NaN,NaN,"",NaN,NaN,NaN,NaN,NaN,NaN,NaN,NaN,NaN,NaN,NaN,NaN,NaN,NaN,NaN,NaN,NaN,NaN,NaN,NaN,NaN,,NaN,NaN,NaN,NaN,NaN,,NaN,NaN,NaN,NaN,NaN,NaN,NaN,,NaN,NaN,NaN,NaN,NaN,NaN,12,1,2020-11-10_09h26.05.454,Pirates_expt3,2020.1.2,MacIntel,60,NaN,NaN,NaN,NaN,NaN,NaN,NaN,,NaN,NaN,NaN,NaN,NaN,NaN,,NaN,NaN,NaN,NaN,NaN,NaN,"",,NaN,NaN,NaN,NaN,NaN,NaN,NaN,NaN,NaN,NaN,NaN,NaN,NaN,,NaN,0,0,0,0,1,NaN,,NaN,,NaN,,NaN
NaN,NaN,NaN,NaN,NaN,"",NaN,NaN,"",NaN,NaN,1,2,35,3,95,78,90,0.1,0.05,0.15,0.15,78,95,90,0.05,0.1,0.15,3,3,0,0,90,90,1260,36,s,0.25651,1,35,1260,36,164,0,,NaN,NaN,NaN,NaN,NaN,NaN,12,1,2020-11-10_09h26.05.454,Pirates_expt3,2020.1.2,MacIntel,60,NaN,NaN,NaN,NaN,NaN,NaN,NaN,,NaN,NaN,NaN,NaN,NaN,NaN,,NaN,NaN,NaN,NaN,NaN,NaN,"",,NaN,4,0,4,0,1,3,200,0,200,0,1,199,,NaN,200,0,200,0,1,199,,NaN,,NaN,,NaN
NaN,NaN,NaN,NaN,NaN,"",NaN,NaN,"",NaN,NaN,1,2,34,3,95,79,92,0.1,0.05,0.15,0.15,79,95,92,0.05,0.1,0.15,0,4,0,0,92,90,1260,37,0,0,0,34,1260,37,163,2.336,,NaN,NaN,NaN,NaN,NaN,NaN,12,1,2020-11-10_09h26.05.454,Pirates_expt3,2020.1.2,MacIntel,60,NaN,NaN,NaN,NaN,NaN,NaN,NaN,,NaN,NaN,NaN,NaN,NaN,NaN,,NaN,NaN,NaN,NaN,NaN,NaN,"",,NaN,4,0,4,0,1,3,200,0,200,0,1,199,,NaN,200,0,200,0,1,199,s,0.25651,,NaN,,NaN
NaN,NaN,NaN,NaN,NaN,"",NaN,NaN,"",NaN,NaN,NaN,NaN,NaN,NaN,NaN,NaN,NaN,NaN,NaN,NaN,NaN,NaN,NaN,NaN,NaN,NaN,NaN,NaN,NaN,,NaN,NaN,NaN,NaN,NaN,,NaN,NaN,NaN,NaN,NaN,NaN,NaN,,NaN,NaN,NaN,NaN,NaN,NaN,12,1,2020-11-10_09h26.05.454,Pirates_expt3,2020.1.2,MacIntel,60,NaN,NaN,NaN,NaN,NaN,NaN,NaN,,NaN,NaN,NaN,NaN,NaN,NaN,,NaN,NaN,NaN,NaN,NaN,NaN,"",,NaN,NaN,NaN,NaN,NaN,NaN,NaN,10,0,10,0,1,NaN,,NaN,NaN,NaN,NaN,NaN,NaN,NaN,,NaN,,NaN,,NaN
NaN,NaN,NaN,NaN,NaN,"",NaN,NaN,"",NaN,NaN,1,2,34,1,95,79,92,0.1,0.05,0.15,0.1,79,95,92,0.05,0.1,0.15,1,1,f,1.543385,0,0,1260,38,N/A,0,0,34,1260,38,162,0,,NaN,NaN,NaN,NaN,NaN,NaN,12,1,2020-11-10_09h26.05.454,Pirates_expt3,2020.1.2,MacIntel,60,NaN,NaN,NaN,NaN,NaN,NaN,NaN,,NaN,NaN,NaN,NaN,NaN,NaN,,NaN,NaN,NaN,NaN,NaN,NaN,"",,NaN,4,0,4,0,1,3,200,0,200,0,1,199,,NaN,NaN,NaN,NaN,NaN,NaN,NaN,,NaN,,NaN,,NaN
NaN,NaN,NaN,NaN,NaN,"",NaN,NaN,"",NaN,NaN,1,2,34,1,96,80,93,0.1,0.05,0.15,0.1,80,96,93,0.05,0.1,0.15,0,2,0,0,0,0,1260,38,N/A,0,0,34,1260,38,162,0,,NaN,NaN,NaN,NaN,NaN,NaN,12,1,2020-11-10_09h26.05.454,Pirates_expt3,2020.1.2,MacIntel,60,NaN,NaN,NaN,NaN,NaN,NaN,NaN,,NaN,NaN,NaN,NaN,NaN,NaN,,NaN,NaN,NaN,NaN,NaN,NaN,"",,NaN,4,0,4,0,1,3,200,0,200,0,1,199,f,1.543385,NaN,NaN,NaN,NaN,NaN,NaN,,NaN,,NaN,,NaN
NaN,NaN,NaN,NaN,NaN,"",NaN,NaN,"",NaN,NaN,1,2,33,1,96,80,93,0.1,0.05,0.15,0.1,80,96,93,0.05,0.1,0.15,2,3,0,0,96,96,1260,38,space,0.577915,0,33,1260,38,162,0,,NaN,NaN,NaN,NaN,NaN,NaN,12,1,2020-11-10_09h26.05.454,Pirates_expt3,2020.1.2,MacIntel,60,NaN,NaN,NaN,NaN,NaN,NaN,NaN,,NaN,NaN,NaN,NaN,NaN,NaN,,NaN,NaN,NaN,NaN,NaN,NaN,"",,NaN,4,0,4,0,1,3,200,0,200,0,1,199,,NaN,200,0,200,0,1,199,,NaN,,NaN,,NaN
NaN,NaN,NaN,NaN,NaN,"",NaN,NaN,"",NaN,NaN,1,2,34,1,96,81,94,0.1,0.05,0.15,0.1,81,96,94,0.05,0.1,0.15,0,4,0,0,96,96,1357,39,0,0,0,34,1357,39,161,0,,NaN,NaN,NaN,NaN,NaN,NaN,12,1,2020-11-10_09h26.05.454,Pirates_expt3,2020.1.2,MacIntel,60,NaN,NaN,NaN,NaN,NaN,NaN,NaN,,NaN,NaN,NaN,NaN,NaN,NaN,,NaN,NaN,NaN,NaN,NaN,NaN,"",,NaN,4,0,4,0,1,3,200,0,200,0,1,199,,NaN,200,0,200,0,1,199,space,0.577915,,NaN,,NaN
NaN,NaN,NaN,NaN,NaN,"",NaN,NaN,"",NaN,NaN,NaN,NaN,NaN,NaN,NaN,NaN,NaN,NaN,NaN,NaN,NaN,NaN,NaN,NaN,NaN,NaN,NaN,NaN,NaN,,NaN,NaN,NaN,NaN,NaN,,NaN,NaN,NaN,NaN,NaN,NaN,NaN,,NaN,NaN,NaN,NaN,NaN,NaN,12,1,2020-11-10_09h26.05.454,Pirates_expt3,2020.1.2,MacIntel,60,NaN,NaN,NaN,NaN,NaN,NaN,NaN,,NaN,NaN,NaN,NaN,NaN,NaN,,NaN,NaN,NaN,NaN,NaN,NaN,"",,NaN,NaN,NaN,NaN,NaN,NaN,NaN,NaN,NaN,NaN,NaN,NaN,NaN,,NaN,0,0,0,0,1,NaN,,NaN,,NaN,,NaN
NaN,NaN,NaN,NaN,NaN,"",NaN,NaN,"",NaN,NaN,1,2,34,1,91,81,94,0.1,0.05,0.15,0.1,81,91,94,0.05,0.1,0.15,3,3,0,0,91,91,1357,39,s,0.70742,1,34,1357,39,161,0,,NaN,NaN,NaN,NaN,NaN,NaN,12,1,2020-11-10_09h26.05.454,Pirates_expt3,2020.1.2,MacIntel,60,NaN,NaN,NaN,NaN,NaN,NaN,NaN,,NaN,NaN,NaN,NaN,NaN,NaN,,NaN,NaN,NaN,NaN,NaN,NaN,"",,NaN,4,0,4,0,1,3,200,0,200,0,1,199,,NaN,200,0,200,0,1,199,,NaN,,NaN,,NaN
NaN,NaN,NaN,NaN,NaN,"",NaN,NaN,"",NaN,NaN,1,2,33,1,92,82,95,0.1,0.05,0.15,0.1,82,92,95,0.05,0.1,0.15,0,4,0,0,92,91,1357,40,0,0,0,33,1357,40,160,2.877,,NaN,NaN,NaN,NaN,NaN,NaN,12,1,2020-11-10_09h26.05.454,Pirates_expt3,2020.1.2,MacIntel,60,NaN,NaN,NaN,NaN,NaN,NaN,NaN,,NaN,NaN,NaN,NaN,NaN,NaN,,NaN,NaN,NaN,NaN,NaN,NaN,"",,NaN,4,0,4,0,1,3,200,0,200,0,1,199,,NaN,200,0,200,0,1,199,s,0.70742,,NaN,,NaN
NaN,NaN,NaN,NaN,NaN,"",NaN,NaN,"",NaN,NaN,NaN,NaN,NaN,NaN,NaN,NaN,NaN,NaN,NaN,NaN,NaN,NaN,NaN,NaN,NaN,NaN,NaN,NaN,NaN,,NaN,NaN,NaN,NaN,NaN,,NaN,NaN,NaN,NaN,NaN,NaN,NaN,,NaN,NaN,NaN,NaN,NaN,NaN,12,1,2020-11-10_09h26.05.454,Pirates_expt3,2020.1.2,MacIntel,60,NaN,NaN,NaN,NaN,NaN,NaN,NaN,,NaN,NaN,NaN,NaN,NaN,NaN,,NaN,NaN,NaN,NaN,NaN,NaN,"",,NaN,NaN,NaN,NaN,NaN,NaN,NaN,11,0,11,0,1,NaN,,NaN,NaN,NaN,NaN,NaN,NaN,NaN,,NaN,,NaN,,NaN
NaN,NaN,NaN,NaN,NaN,"",NaN,NaN,"",NaN,NaN,1,2,33,3,92,82,95,0.1,0.05,0.15,0.15,82,92,95,0.05,0.1,0.15,1,1,k,1.10799,0,0,1357,41,N/A,0,0,33,1357,41,159,0,,NaN,NaN,NaN,NaN,NaN,NaN,12,1,2020-11-10_09h26.05.454,Pirates_expt3,2020.1.2,MacIntel,60,NaN,NaN,NaN,NaN,NaN,NaN,NaN,,NaN,NaN,NaN,NaN,NaN,NaN,,NaN,NaN,NaN,NaN,NaN,NaN,"",,NaN,4,0,4,0,1,3,200,0,200,0,1,199,,NaN,NaN,NaN,NaN,NaN,NaN,NaN,,NaN,,NaN,,NaN
NaN,NaN,NaN,NaN,NaN,"",NaN,NaN,"",NaN,NaN,1,2,33,3,93,83,95,0.1,0.05,0.15,0.15,83,93,95,0.05,0.1,0.15,0,2,0,0,0,0,1357,41,N/A,0,0,33,1357,41,159,0,,NaN,NaN,NaN,NaN,NaN,NaN,12,1,2020-11-10_09h26.05.454,Pirates_expt3,2020.1.2,MacIntel,60,NaN,NaN,NaN,NaN,NaN,NaN,NaN,,NaN,NaN,NaN,NaN,NaN,NaN,,NaN,NaN,NaN,NaN,NaN,NaN,"",,NaN,4,0,4,0,1,3,200,0,200,0,1,199,k,1.10799,NaN,NaN,NaN,NaN,NaN,NaN,,NaN,,NaN,,NaN
NaN,NaN,NaN,NaN,NaN,"",NaN,NaN,"",NaN,NaN,1,2,33,3,93,83,95,0.1,0.05,0.15,0.15,83,93,95,0.05,0.1,0.15,2,3,0,0,95,95,1357,41,space,0.516435,0,33,1357,41,159,0,,NaN,NaN,NaN,NaN,NaN,NaN,12,1,2020-11-10_09h26.05.454,Pirates_expt3,2020.1.2,MacIntel,60,NaN,NaN,NaN,NaN,NaN,NaN,NaN,,NaN,NaN,NaN,NaN,NaN,NaN,,NaN,NaN,NaN,NaN,NaN,NaN,"",,NaN,4,0,4,0,1,3,200,0,200,0,1,199,,NaN,200,0,200,0,1,199,,NaN,,NaN,,NaN
NaN,NaN,NaN,NaN,NaN,"",NaN,NaN,"",NaN,NaN,1,2,34,3,93,84,95,0.1,0.05,0.15,0.15,84,93,95,0.05,0.1,0.15,0,4,0,0,95,95,1453,42,0,0,0,34,1453,42,158,0,,NaN,NaN,NaN,NaN,NaN,NaN,12,1,2020-11-10_09h26.05.454,Pirates_expt3,2020.1.2,MacIntel,60,NaN,NaN,NaN,NaN,NaN,NaN,NaN,,NaN,NaN,NaN,NaN,NaN,NaN,,NaN,NaN,NaN,NaN,NaN,NaN,"",,NaN,4,0,4,0,1,3,200,0,200,0,1,199,,NaN,200,0,200,0,1,199,space,0.516435,,NaN,,NaN
NaN,NaN,NaN,NaN,NaN,"",NaN,NaN,"",NaN,NaN,NaN,NaN,NaN,NaN,NaN,NaN,NaN,NaN,NaN,NaN,NaN,NaN,NaN,NaN,NaN,NaN,NaN,NaN,NaN,,NaN,NaN,NaN,NaN,NaN,,NaN,NaN,NaN,NaN,NaN,NaN,NaN,,NaN,NaN,NaN,NaN,NaN,NaN,12,1,2020-11-10_09h26.05.454,Pirates_expt3,2020.1.2,MacIntel,60,NaN,NaN,NaN,NaN,NaN,NaN,NaN,,NaN,NaN,NaN,NaN,NaN,NaN,,NaN,NaN,NaN,NaN,NaN,NaN,"",,NaN,NaN,NaN,NaN,NaN,NaN,NaN,NaN,NaN,NaN,NaN,NaN,NaN,,NaN,0,0,0,0,1,NaN,,NaN,,NaN,,NaN
NaN,NaN,NaN,NaN,NaN,"",NaN,NaN,"",NaN,NaN,1,2,34,3,93,84,91,0.1,0.05,0.15,0.15,84,93,91,0.05,0.1,0.15,3,3,0,0,91,91,1453,42,s,0.90818,1,34,1453,42,158,0,,NaN,NaN,NaN,NaN,NaN,NaN,12,1,2020-11-10_09h26.05.454,Pirates_expt3,2020.1.2,MacIntel,60,NaN,NaN,NaN,NaN,NaN,NaN,NaN,,NaN,NaN,NaN,NaN,NaN,NaN,,NaN,NaN,NaN,NaN,NaN,NaN,"",,NaN,4,0,4,0,1,3,200,0,200,0,1,199,,NaN,200,0,200,0,1,199,,NaN,,NaN,,NaN
NaN,NaN,NaN,NaN,NaN,"",NaN,NaN,"",NaN,NaN,1,2,33,3,94,85,92,0.1,0.05,0.15,0.15,85,94,92,0.05,0.1,0.15,0,4,0,0,92,91,1453,43,0,0,0,33,1453,43,157,3.015,,NaN,NaN,NaN,NaN,NaN,NaN,12,1,2020-11-10_09h26.05.454,Pirates_expt3,2020.1.2,MacIntel,60,NaN,NaN,NaN,NaN,NaN,NaN,NaN,,NaN,NaN,NaN,NaN,NaN,NaN,,NaN,NaN,NaN,NaN,NaN,NaN,"",,NaN,4,0,4,0,1,3,200,0,200,0,1,199,,NaN,200,0,200,0,1,199,s,0.90818,,NaN,,NaN
NaN,NaN,NaN,NaN,NaN,"",NaN,NaN,"",NaN,NaN,NaN,NaN,NaN,NaN,NaN,NaN,NaN,NaN,NaN,NaN,NaN,NaN,NaN,NaN,NaN,NaN,NaN,NaN,NaN,,NaN,NaN,NaN,NaN,NaN,,NaN,NaN,NaN,NaN,NaN,NaN,NaN,,NaN,NaN,NaN,NaN,NaN,NaN,12,1,2020-11-10_09h26.05.454,Pirates_expt3,2020.1.2,MacIntel,60,NaN,NaN,NaN,NaN,NaN,NaN,NaN,,NaN,NaN,NaN,NaN,NaN,NaN,,NaN,NaN,NaN,NaN,NaN,NaN,"",,NaN,NaN,NaN,NaN,NaN,NaN,NaN,12,0,12,0,1,NaN,,NaN,NaN,NaN,NaN,NaN,NaN,NaN,,NaN,,NaN,,NaN
NaN,NaN,NaN,NaN,NaN,"",NaN,NaN,"",NaN,NaN,1,2,33,1,94,85,92,0.1,0.05,0.15,0.1,85,94,92,0.05,0.1,0.15,1,1,f,1.691105,0,0,1453,44,N/A,0,0,33,1453,44,156,0,,NaN,NaN,NaN,NaN,NaN,NaN,12,1,2020-11-10_09h26.05.454,Pirates_expt3,2020.1.2,MacIntel,60,NaN,NaN,NaN,NaN,NaN,NaN,NaN,,NaN,NaN,NaN,NaN,NaN,NaN,,NaN,NaN,NaN,NaN,NaN,NaN,"",,NaN,4,0,4,0,1,3,200,0,200,0,1,199,,NaN,NaN,NaN,NaN,NaN,NaN,NaN,,NaN,,NaN,,NaN
NaN,NaN,NaN,NaN,NaN,"",NaN,NaN,"",NaN,NaN,1,2,33,1,94,85,93,0.1,0.05,0.15,0.1,85,94,93,0.05,0.1,0.15,0,2,0,0,0,0,1453,44,N/A,0,0,33,1453,44,156,0,,NaN,NaN,NaN,NaN,NaN,NaN,12,1,2020-11-10_09h26.05.454,Pirates_expt3,2020.1.2,MacIntel,60,NaN,NaN,NaN,NaN,NaN,NaN,NaN,,NaN,NaN,NaN,NaN,NaN,NaN,,NaN,NaN,NaN,NaN,NaN,NaN,"",,NaN,4,0,4,0,1,3,200,0,200,0,1,199,f,1.691105,NaN,NaN,NaN,NaN,NaN,NaN,,NaN,,NaN,,NaN
NaN,NaN,NaN,NaN,NaN,"",NaN,NaN,"",NaN,NaN,1,2,33,1,94,85,93,0.1,0.05,0.15,0.1,85,94,93,0.05,0.1,0.15,2,3,0,0,94,94,1453,44,space,0.44842,0,33,1453,44,156,0,,NaN,NaN,NaN,NaN,NaN,NaN,12,1,2020-11-10_09h26.05.454,Pirates_expt3,2020.1.2,MacIntel,60,NaN,NaN,NaN,NaN,NaN,NaN,NaN,,NaN,NaN,NaN,NaN,NaN,NaN,,NaN,NaN,NaN,NaN,NaN,NaN,"",,NaN,4,0,4,0,1,3,200,0,200,0,1,199,,NaN,200,0,200,0,1,199,,NaN,,NaN,,NaN
NaN,NaN,NaN,NaN,NaN,"",NaN,NaN,"",NaN,NaN,1,2,34,1,94,86,94,0.1,0.05,0.15,0.1,86,94,94,0.05,0.1,0.15,0,4,0,0,94,94,1547,45,0,0,0,34,1547,45,155,0,,NaN,NaN,NaN,NaN,NaN,NaN,12,1,2020-11-10_09h26.05.454,Pirates_expt3,2020.1.2,MacIntel,60,NaN,NaN,NaN,NaN,NaN,NaN,NaN,,NaN,NaN,NaN,NaN,NaN,NaN,,NaN,NaN,NaN,NaN,NaN,NaN,"",,NaN,4,0,4,0,1,3,200,0,200,0,1,199,,NaN,200,0,200,0,1,199,space,0.44842,,NaN,,NaN
NaN,NaN,NaN,NaN,NaN,"",NaN,NaN,"",NaN,NaN,NaN,NaN,NaN,NaN,NaN,NaN,NaN,NaN,NaN,NaN,NaN,NaN,NaN,NaN,NaN,NaN,NaN,NaN,NaN,,NaN,NaN,NaN,NaN,NaN,,NaN,NaN,NaN,NaN,NaN,NaN,NaN,,NaN,NaN,NaN,NaN,NaN,NaN,12,1,2020-11-10_09h26.05.454,Pirates_expt3,2020.1.2,MacIntel,60,NaN,NaN,NaN,NaN,NaN,NaN,NaN,,NaN,NaN,NaN,NaN,NaN,NaN,,NaN,NaN,NaN,NaN,NaN,NaN,"",,NaN,NaN,NaN,NaN,NaN,NaN,NaN,NaN,NaN,NaN,NaN,NaN,NaN,,NaN,0,0,0,0,1,NaN,,NaN,,NaN,,NaN
NaN,NaN,NaN,NaN,NaN,"",NaN,NaN,"",NaN,NaN,1,2,34,1,90,86,94,0.1,0.05,0.15,0.1,86,90,94,0.05,0.1,0.15,3,3,0,0,90,90,1547,45,s,1.105885,1,34,1547,45,155,0,,NaN,NaN,NaN,NaN,NaN,NaN,12,1,2020-11-10_09h26.05.454,Pirates_expt3,2020.1.2,MacIntel,60,NaN,NaN,NaN,NaN,NaN,NaN,NaN,,NaN,NaN,NaN,NaN,NaN,NaN,,NaN,NaN,NaN,NaN,NaN,NaN,"",,NaN,4,0,4,0,1,3,200,0,200,0,1,199,,NaN,200,0,200,0,1,199,,NaN,,NaN,,NaN
NaN,NaN,NaN,NaN,NaN,"",NaN,NaN,"",NaN,NaN,1,2,33,1,91,87,95,0.1,0.05,0.15,0.1,87,91,95,0.05,0.1,0.15,0,4,0,0,91,90,1547,46,0,0,0,33,1547,46,154,3.148,,NaN,NaN,NaN,NaN,NaN,NaN,12,1,2020-11-10_09h26.05.454,Pirates_expt3,2020.1.2,MacIntel,60,NaN,NaN,NaN,NaN,NaN,NaN,NaN,,NaN,NaN,NaN,NaN,NaN,NaN,,NaN,NaN,NaN,NaN,NaN,NaN,"",,NaN,4,0,4,0,1,3,200,0,200,0,1,199,,NaN,200,0,200,0,1,199,s,1.105885,,NaN,,NaN
NaN,NaN,NaN,NaN,NaN,"",NaN,NaN,"",NaN,NaN,NaN,NaN,NaN,NaN,NaN,NaN,NaN,NaN,NaN,NaN,NaN,NaN,NaN,NaN,NaN,NaN,NaN,NaN,NaN,,NaN,NaN,NaN,NaN,NaN,,NaN,NaN,NaN,NaN,NaN,NaN,NaN,,NaN,NaN,NaN,NaN,NaN,NaN,12,1,2020-11-10_09h26.05.454,Pirates_expt3,2020.1.2,MacIntel,60,NaN,NaN,NaN,NaN,NaN,NaN,NaN,,NaN,NaN,NaN,NaN,NaN,NaN,,NaN,NaN,NaN,NaN,NaN,NaN,"",,NaN,NaN,NaN,NaN,NaN,NaN,NaN,13,0,13,0,1,NaN,,NaN,NaN,NaN,NaN,NaN,NaN,NaN,,NaN,,NaN,,NaN
NaN,NaN,NaN,NaN,NaN,"",NaN,NaN,"",NaN,NaN,1,2,33,3,91,87,95,0.1,0.05,0.15,0.15,87,91,95,0.05,0.1,0.15,1,1,k,0.863245,0,0,1547,47,N/A,0,0,33,1547,47,153,0,,NaN,NaN,NaN,NaN,NaN,NaN,12,1,2020-11-10_09h26.05.454,Pirates_expt3,2020.1.2,MacIntel,60,NaN,NaN,NaN,NaN,NaN,NaN,NaN,,NaN,NaN,NaN,NaN,NaN,NaN,,NaN,NaN,NaN,NaN,NaN,NaN,"",,NaN,4,0,4,0,1,3,200,0,200,0,1,199,,NaN,NaN,NaN,NaN,NaN,NaN,NaN,,NaN,,NaN,,NaN
NaN,NaN,NaN,NaN,NaN,"",NaN,NaN,"",NaN,NaN,1,2,33,3,92,87,96,0.1,0.05,0.15,0.15,87,92,96,0.05,0.1,0.15,0,2,0,0,0,0,1547,47,N/A,0,0,33,1547,47,153,0,,NaN,NaN,NaN,NaN,NaN,NaN,12,1,2020-11-10_09h26.05.454,Pirates_expt3,2020.1.2,MacIntel,60,NaN,NaN,NaN,NaN,NaN,NaN,NaN,,NaN,NaN,NaN,NaN,NaN,NaN,,NaN,NaN,NaN,NaN,NaN,NaN,"",,NaN,4,0,4,0,1,3,200,0,200,0,1,199,k,0.863245,NaN,NaN,NaN,NaN,NaN,NaN,,NaN,,NaN,,NaN
NaN,NaN,NaN,NaN,NaN,"",NaN,NaN,"",NaN,NaN,1,2,32,3,92,87,96,0.1,0.05,0.15,0.15,87,92,96,0.05,0.1,0.15,2,3,0,0,96,96,1547,47,space,1.211295,0,32,1547,47,153,0,,NaN,NaN,NaN,NaN,NaN,NaN,12,1,2020-11-10_09h26.05.454,Pirates_expt3,2020.1.2,MacIntel,60,NaN,NaN,NaN,NaN,NaN,NaN,NaN,,NaN,NaN,NaN,NaN,NaN,NaN,,NaN,NaN,NaN,NaN,NaN,NaN,"",,NaN,4,0,4,0,1,3,200,0,200,0,1,199,,NaN,200,0,200,0,1,199,,NaN,,NaN,,NaN
NaN,NaN,NaN,NaN,NaN,"",NaN,NaN,"",NaN,NaN,1,2,34,3,92,88,96,0.1,0.05,0.15,0.15,88,92,96,0.05,0.1,0.15,0,4,0,0,96,96,1644,48,0,0,0,34,1644,48,152,0,,NaN,NaN,NaN,NaN,NaN,NaN,12,1,2020-11-10_09h26.05.454,Pirates_expt3,2020.1.2,MacIntel,60,NaN,NaN,NaN,NaN,NaN,NaN,NaN,,NaN,NaN,NaN,NaN,NaN,NaN,,NaN,NaN,NaN,NaN,NaN,NaN,"",,NaN,4,0,4,0,1,3,200,0,200,0,1,199,,NaN,200,0,200,0,1,199,space,1.211295,,NaN,,NaN
NaN,NaN,NaN,NaN,NaN,"",NaN,NaN,"",NaN,NaN,NaN,NaN,NaN,NaN,NaN,NaN,NaN,NaN,NaN,NaN,NaN,NaN,NaN,NaN,NaN,NaN,NaN,NaN,NaN,,NaN,NaN,NaN,NaN,NaN,,NaN,NaN,NaN,NaN,NaN,NaN,NaN,,NaN,NaN,NaN,NaN,NaN,NaN,12,1,2020-11-10_09h26.05.454,Pirates_expt3,2020.1.2,MacIntel,60,NaN,NaN,NaN,NaN,NaN,NaN,NaN,,NaN,NaN,NaN,NaN,NaN,NaN,,NaN,NaN,NaN,NaN,NaN,NaN,"",,NaN,NaN,NaN,NaN,NaN,NaN,NaN,NaN,NaN,NaN,NaN,NaN,NaN,,NaN,0,0,0,0,1,NaN,,NaN,,NaN,,NaN
NaN,NaN,NaN,NaN,NaN,"",NaN,NaN,"",NaN,NaN,1,2,34,3,92,88,91,0.1,0.05,0.15,0.15,88,92,91,0.05,0.1,0.15,3,3,0,0,91,91,1644,48,s,1.5055,1,34,1644,48,152,0,,NaN,NaN,NaN,NaN,NaN,NaN,12,1,2020-11-10_09h26.05.454,Pirates_expt3,2020.1.2,MacIntel,60,NaN,NaN,NaN,NaN,NaN,NaN,NaN,,NaN,NaN,NaN,NaN,NaN,NaN,,NaN,NaN,NaN,NaN,NaN,NaN,"",,NaN,4,0,4,0,1,3,200,0,200,0,1,199,,NaN,200,0,200,0,1,199,,NaN,,NaN,,NaN
NaN,NaN,NaN,NaN,NaN,"",NaN,NaN,"",NaN,NaN,1,2,33,3,93,89,92,0.1,0.05,0.15,0.15,89,93,92,0.05,0.1,0.15,0,4,0,0,92,91,1644,49,0,0,0,33,1644,49,151,4.298,,NaN,NaN,NaN,NaN,NaN,NaN,12,1,2020-11-10_09h26.05.454,Pirates_expt3,2020.1.2,MacIntel,60,NaN,NaN,NaN,NaN,NaN,NaN,NaN,,NaN,NaN,NaN,NaN,NaN,NaN,,NaN,NaN,NaN,NaN,NaN,NaN,"",,NaN,4,0,4,0,1,3,200,0,200,0,1,199,,NaN,200,0,200,0,1,199,s,1.5055,,NaN,,NaN
NaN,NaN,NaN,NaN,NaN,"",NaN,NaN,"",NaN,NaN,NaN,NaN,NaN,NaN,NaN,NaN,NaN,NaN,NaN,NaN,NaN,NaN,NaN,NaN,NaN,NaN,NaN,NaN,NaN,,NaN,NaN,NaN,NaN,NaN,,NaN,NaN,NaN,NaN,NaN,NaN,NaN,,NaN,NaN,NaN,NaN,NaN,NaN,12,1,2020-11-10_09h26.05.454,Pirates_expt3,2020.1.2,MacIntel,60,NaN,NaN,NaN,NaN,NaN,NaN,NaN,,NaN,NaN,NaN,NaN,NaN,NaN,,NaN,NaN,NaN,NaN,NaN,NaN,"",,NaN,NaN,NaN,NaN,NaN,NaN,NaN,14,0,14,0,1,NaN,,NaN,NaN,NaN,NaN,NaN,NaN,NaN,,NaN,,NaN,,NaN
NaN,NaN,NaN,NaN,NaN,"",NaN,NaN,"",NaN,NaN,1,2,33,1,93,89,92,0.1,0.05,0.15,0.1,89,93,92,0.05,0.1,0.15,1,1,f,1.426415,0,0,1644,50,N/A,0,0,33,1644,50,150,0,,NaN,NaN,NaN,NaN,NaN,NaN,12,1,2020-11-10_09h26.05.454,Pirates_expt3,2020.1.2,MacIntel,60,NaN,NaN,NaN,NaN,NaN,NaN,NaN,,NaN,NaN,NaN,NaN,NaN,NaN,,NaN,NaN,NaN,NaN,NaN,NaN,"",,NaN,4,0,4,0,1,3,200,0,200,0,1,199,,NaN,NaN,NaN,NaN,NaN,NaN,NaN,,NaN,,NaN,,NaN
NaN,NaN,NaN,NaN,NaN,"",NaN,NaN,"",NaN,NaN,1,2,33,1,94,89,93,0.1,0.05,0.15,0.1,89,94,93,0.05,0.1,0.15,0,2,0,0,0,0,1644,50,N/A,0,0,33,1644,50,150,0,,NaN,NaN,NaN,NaN,NaN,NaN,12,1,2020-11-10_09h26.05.454,Pirates_expt3,2020.1.2,MacIntel,60,NaN,NaN,NaN,NaN,NaN,NaN,NaN,,NaN,NaN,NaN,NaN,NaN,NaN,,NaN,NaN,NaN,NaN,NaN,NaN,"",,NaN,4,0,4,0,1,3,200,0,200,0,1,199,f,1.426415,NaN,NaN,NaN,NaN,NaN,NaN,,NaN,,NaN,,NaN
NaN,NaN,NaN,NaN,NaN,"",NaN,NaN,"",NaN,NaN,1,2,32,1,94,89,93,0.1,0.05,0.15,0.1,89,94,93,0.05,0.1,0.15,2,3,0,0,94,94,1644,50,space,0.99981,0,32,1644,50,150,0,,NaN,NaN,NaN,NaN,NaN,NaN,12,1,2020-11-10_09h26.05.454,Pirates_expt3,2020.1.2,MacIntel,60,NaN,NaN,NaN,NaN,NaN,NaN,NaN,,NaN,NaN,NaN,NaN,NaN,NaN,,NaN,NaN,NaN,NaN,NaN,NaN,"",,NaN,4,0,4,0,1,3,200,0,200,0,1,199,,NaN,200,0,200,0,1,199,,NaN,,NaN,,NaN
NaN,NaN,NaN,NaN,NaN,"",NaN,NaN,"",NaN,NaN,1,2,34,1,94,90,94,0.1,0.05,0.15,0.1,90,94,94,0.05,0.1,0.15,0,4,0,0,94,94,1738,51,0,0,0,34,1738,51,149,0,,NaN,NaN,NaN,NaN,NaN,NaN,12,1,2020-11-10_09h26.05.454,Pirates_expt3,2020.1.2,MacIntel,60,NaN,NaN,NaN,NaN,NaN,NaN,NaN,,NaN,NaN,NaN,NaN,NaN,NaN,,NaN,NaN,NaN,NaN,NaN,NaN,"",,NaN,4,0,4,0,1,3,200,0,200,0,1,199,,NaN,200,0,200,0,1,199,space,0.99981,,NaN,,NaN
NaN,NaN,NaN,NaN,NaN,"",NaN,NaN,"",NaN,NaN,NaN,NaN,NaN,NaN,NaN,NaN,NaN,NaN,NaN,NaN,NaN,NaN,NaN,NaN,NaN,NaN,NaN,NaN,NaN,,NaN,NaN,NaN,NaN,NaN,,NaN,NaN,NaN,NaN,NaN,NaN,NaN,,NaN,NaN,NaN,NaN,NaN,NaN,12,1,2020-11-10_09h26.05.454,Pirates_expt3,2020.1.2,MacIntel,60,NaN,NaN,NaN,NaN,NaN,NaN,NaN,,NaN,NaN,NaN,NaN,NaN,NaN,,NaN,NaN,NaN,NaN,NaN,NaN,"",,NaN,NaN,NaN,NaN,NaN,NaN,NaN,NaN,NaN,NaN,NaN,NaN,NaN,,NaN,0,0,0,0,1,NaN,,NaN,,NaN,,NaN
NaN,NaN,NaN,NaN,NaN,"",NaN,NaN,"",NaN,NaN,1,2,34,1,89,90,94,0.1,0.05,0.15,0.1,90,89,94,0.05,0.1,0.15,3,3,0,0,89,89,1738,51,s,0.467835,1,34,1738,51,149,0,,NaN,NaN,NaN,NaN,NaN,NaN,12,1,2020-11-10_09h26.05.454,Pirates_expt3,2020.1.2,MacIntel,60,NaN,NaN,NaN,NaN,NaN,NaN,NaN,,NaN,NaN,NaN,NaN,NaN,NaN,,NaN,NaN,NaN,NaN,NaN,NaN,"",,NaN,4,0,4,0,1,3,200,0,200,0,1,199,,NaN,200,0,200,0,1,199,,NaN,,NaN,,NaN
NaN,NaN,NaN,NaN,NaN,"",NaN,NaN,"",NaN,NaN,1,2,33,1,90,90,95,0.1,0.05,0.15,0.1,90,90,95,0.05,0.1,0.15,0,4,0,0,90,89,1738,52,0,0,0,33,1738,52,148,3.066,,NaN,NaN,NaN,NaN,NaN,NaN,12,1,2020-11-10_09h26.05.454,Pirates_expt3,2020.1.2,MacIntel,60,NaN,NaN,NaN,NaN,NaN,NaN,NaN,,NaN,NaN,NaN,NaN,NaN,NaN,,NaN,NaN,NaN,NaN,NaN,NaN,"",,NaN,4,0,4,0,1,3,200,0,200,0,1,199,,NaN,200,0,200,0,1,199,s,0.467835,,NaN,,NaN
NaN,NaN,NaN,NaN,NaN,"",NaN,NaN,"",NaN,NaN,NaN,NaN,NaN,NaN,NaN,NaN,NaN,NaN,NaN,NaN,NaN,NaN,NaN,NaN,NaN,NaN,NaN,NaN,NaN,,NaN,NaN,NaN,NaN,NaN,,NaN,NaN,NaN,NaN,NaN,NaN,NaN,,NaN,NaN,NaN,NaN,NaN,NaN,12,1,2020-11-10_09h26.05.454,Pirates_expt3,2020.1.2,MacIntel,60,NaN,NaN,NaN,NaN,NaN,NaN,NaN,,NaN,NaN,NaN,NaN,NaN,NaN,,NaN,NaN,NaN,NaN,NaN,NaN,"",,NaN,NaN,NaN,NaN,NaN,NaN,NaN,15,0,15,0,1,NaN,,NaN,NaN,NaN,NaN,NaN,NaN,NaN,,NaN,,NaN,,NaN
NaN,NaN,NaN,NaN,NaN,"",NaN,NaN,"",NaN,NaN,1,2,33,3,90,90,95,0.1,0.05,0.15,0.15,90,90,95,0.05,0.1,0.15,1,1,k,1.15419,0,0,1738,53,N/A,0,0,33,1738,53,147,0,,NaN,NaN,NaN,NaN,NaN,NaN,12,1,2020-11-10_09h26.05.454,Pirates_expt3,2020.1.2,MacIntel,60,NaN,NaN,NaN,NaN,NaN,NaN,NaN,,NaN,NaN,NaN,NaN,NaN,NaN,,NaN,NaN,NaN,NaN,NaN,NaN,"",,NaN,4,0,4,0,1,3,200,0,200,0,1,199,,NaN,NaN,NaN,NaN,NaN,NaN,NaN,,NaN,,NaN,,NaN
NaN,NaN,NaN,NaN,NaN,"",NaN,NaN,"",NaN,NaN,1,2,33,3,91,91,96,0.1,0.05,0.15,0.15,91,91,96,0.05,0.1,0.15,0,2,0,0,0,0,1738,53,N/A,0,0,33,1738,53,147,0,,NaN,NaN,NaN,NaN,NaN,NaN,12,1,2020-11-10_09h26.05.454,Pirates_expt3,2020.1.2,MacIntel,60,NaN,NaN,NaN,NaN,NaN,NaN,NaN,,NaN,NaN,NaN,NaN,NaN,NaN,,NaN,NaN,NaN,NaN,NaN,NaN,"",,NaN,4,0,4,0,1,3,200,0,200,0,1,199,k,1.15419,NaN,NaN,NaN,NaN,NaN,NaN,,NaN,,NaN,,NaN
NaN,NaN,NaN,NaN,NaN,"",NaN,NaN,"",NaN,NaN,1,2,32,3,91,91,96,0.1,0.05,0.15,0.15,91,91,96,0.05,0.1,0.15,2,3,0,0,96,96,1738,53,space,1.567725,0,32,1738,53,147,0,,NaN,NaN,NaN,NaN,NaN,NaN,12,1,2020-11-10_09h26.05.454,Pirates_expt3,2020.1.2,MacIntel,60,NaN,NaN,NaN,NaN,NaN,NaN,NaN,,NaN,NaN,NaN,NaN,NaN,NaN,,NaN,NaN,NaN,NaN,NaN,NaN,"",,NaN,4,0,4,0,1,3,200,0,200,0,1,199,,NaN,200,0,200,0,1,199,,NaN,,NaN,,NaN
NaN,NaN,NaN,NaN,NaN,"",NaN,NaN,"",NaN,NaN,1,2,33,3,92,91,96,0.1,0.05,0.15,0.15,91,92,96,0.05,0.1,0.15,0,4,0,0,96,96,1834,54,0,0,0,33,1834,54,146,0,,NaN,NaN,NaN,NaN,NaN,NaN,12,1,2020-11-10_09h26.05.454,Pirates_expt3,2020.1.2,MacIntel,60,NaN,NaN,NaN,NaN,NaN,NaN,NaN,,NaN,NaN,NaN,NaN,NaN,NaN,,NaN,NaN,NaN,NaN,NaN,NaN,"",,NaN,4,0,4,0,1,3,200,0,200,0,1,199,,NaN,200,0,200,0,1,199,space,1.567725,,NaN,,NaN
NaN,NaN,NaN,NaN,NaN,"",NaN,NaN,"",NaN,NaN,NaN,NaN,NaN,NaN,NaN,NaN,NaN,NaN,NaN,NaN,NaN,NaN,NaN,NaN,NaN,NaN,NaN,NaN,NaN,,NaN,NaN,NaN,NaN,NaN,,NaN,NaN,NaN,NaN,NaN,NaN,NaN,,NaN,NaN,NaN,NaN,NaN,NaN,12,1,2020-11-10_09h26.05.454,Pirates_expt3,2020.1.2,MacIntel,60,NaN,NaN,NaN,NaN,NaN,NaN,NaN,,NaN,NaN,NaN,NaN,NaN,NaN,,NaN,NaN,NaN,NaN,NaN,NaN,"",,NaN,NaN,NaN,NaN,NaN,NaN,NaN,NaN,NaN,NaN,NaN,NaN,NaN,,NaN,0,0,0,0,1,NaN,,NaN,,NaN,,NaN
NaN,NaN,NaN,NaN,NaN,"",NaN,NaN,"",NaN,NaN,1,2,33,3,92,91,91,0.1,0.05,0.15,0.15,91,92,91,0.05,0.1,0.15,3,3,0,0,91,91,1834,54,s,0.40168,1,33,1834,54,146,0,,NaN,NaN,NaN,NaN,NaN,NaN,12,1,2020-11-10_09h26.05.454,Pirates_expt3,2020.1.2,MacIntel,60,NaN,NaN,NaN,NaN,NaN,NaN,NaN,,NaN,NaN,NaN,NaN,NaN,NaN,,NaN,NaN,NaN,NaN,NaN,NaN,"",,NaN,4,0,4,0,1,3,200,0,200,0,1,199,,NaN,200,0,200,0,1,199,,NaN,,NaN,,NaN
NaN,NaN,NaN,NaN,NaN,"",NaN,NaN,"",NaN,NaN,1,2,33,3,93,92,92,0.1,0.05,0.15,0.15,92,93,92,0.05,0.1,0.15,0,4,0,0,92,91,1834,55,0,0,0,33,1834,55,145,3.569,,NaN,NaN,NaN,NaN,NaN,NaN,12,1,2020-11-10_09h26.05.454,Pirates_expt3,2020.1.2,MacIntel,60,NaN,NaN,NaN,NaN,NaN,NaN,NaN,,NaN,NaN,NaN,NaN,NaN,NaN,,NaN,NaN,NaN,NaN,NaN,NaN,"",,NaN,4,0,4,0,1,3,200,0,200,0,1,199,,NaN,200,0,200,0,1,199,s,0.40168,,NaN,,NaN
NaN,NaN,NaN,NaN,NaN,"",NaN,NaN,"",NaN,NaN,NaN,NaN,NaN,NaN,NaN,NaN,NaN,NaN,NaN,NaN,NaN,NaN,NaN,NaN,NaN,NaN,NaN,NaN,NaN,,NaN,NaN,NaN,NaN,NaN,,NaN,NaN,NaN,NaN,NaN,NaN,NaN,,NaN,NaN,NaN,NaN,NaN,NaN,12,1,2020-11-10_09h26.05.454,Pirates_expt3,2020.1.2,MacIntel,60,NaN,NaN,NaN,NaN,NaN,NaN,NaN,,NaN,NaN,NaN,NaN,NaN,NaN,,NaN,NaN,NaN,NaN,NaN,NaN,"",,NaN,NaN,NaN,NaN,NaN,NaN,NaN,16,0,16,0,1,NaN,,NaN,NaN,NaN,NaN,NaN,NaN,NaN,,NaN,,NaN,,NaN
NaN,NaN,NaN,NaN,NaN,"",NaN,NaN,"",NaN,NaN,1,2,33,1,93,92,92,0.1,0.05,0.15,0.1,92,93,92,0.05,0.1,0.15,1,1,f,1.69576,0,0,1834,56,N/A,0,0,33,1834,56,144,0,,NaN,NaN,NaN,NaN,NaN,NaN,12,1,2020-11-10_09h26.05.454,Pirates_expt3,2020.1.2,MacIntel,60,NaN,NaN,NaN,NaN,NaN,NaN,NaN,,NaN,NaN,NaN,NaN,NaN,NaN,,NaN,NaN,NaN,NaN,NaN,NaN,"",,NaN,4,0,4,0,1,3,200,0,200,0,1,199,,NaN,NaN,NaN,NaN,NaN,NaN,NaN,,NaN,,NaN,,NaN
NaN,NaN,NaN,NaN,NaN,"",NaN,NaN,"",NaN,NaN,1,2,33,1,93,92,93,0.1,0.05,0.15,0.1,92,93,93,0.05,0.1,0.15,0,2,0,0,0,0,1834,56,N/A,0,0,33,1834,56,144,0,,NaN,NaN,NaN,NaN,NaN,NaN,12,1,2020-11-10_09h26.05.454,Pirates_expt3,2020.1.2,MacIntel,60,NaN,NaN,NaN,NaN,NaN,NaN,NaN,,NaN,NaN,NaN,NaN,NaN,NaN,,NaN,NaN,NaN,NaN,NaN,NaN,"",,NaN,4,0,4,0,1,3,200,0,200,0,1,199,f,1.69576,NaN,NaN,NaN,NaN,NaN,NaN,,NaN,,NaN,,NaN
NaN,NaN,NaN,NaN,NaN,"",NaN,NaN,"",NaN,NaN,1,2,32,1,93,92,93,0.1,0.05,0.15,0.1,92,93,93,0.05,0.1,0.15,2,3,0,0,93,93,1834,56,space,0.452645,0,32,1834,56,144,0,,NaN,NaN,NaN,NaN,NaN,NaN,12,1,2020-11-10_09h26.05.454,Pirates_expt3,2020.1.2,MacIntel,60,NaN,NaN,NaN,NaN,NaN,NaN,NaN,,NaN,NaN,NaN,NaN,NaN,NaN,,NaN,NaN,NaN,NaN,NaN,NaN,"",,NaN,4,0,4,0,1,3,200,0,200,0,1,199,,NaN,200,0,200,0,1,199,,NaN,,NaN,,NaN
NaN,NaN,NaN,NaN,NaN,"",NaN,NaN,"",NaN,NaN,1,2,33,1,93,92,94,0.1,0.05,0.15,0.1,92,93,94,0.05,0.1,0.15,0,4,0,0,93,93,1928,57,0,0,0,33,1928,57,143,0,,NaN,NaN,NaN,NaN,NaN,NaN,12,1,2020-11-10_09h26.05.454,Pirates_expt3,2020.1.2,MacIntel,60,NaN,NaN,NaN,NaN,NaN,NaN,NaN,,NaN,NaN,NaN,NaN,NaN,NaN,,NaN,NaN,NaN,NaN,NaN,NaN,"",,NaN,4,0,4,0,1,3,200,0,200,0,1,199,,NaN,200,0,200,0,1,199,space,0.452645,,NaN,,NaN
NaN,NaN,NaN,NaN,NaN,"",NaN,NaN,"",NaN,NaN,NaN,NaN,NaN,NaN,NaN,NaN,NaN,NaN,NaN,NaN,NaN,NaN,NaN,NaN,NaN,NaN,NaN,NaN,NaN,,NaN,NaN,NaN,NaN,NaN,,NaN,NaN,NaN,NaN,NaN,NaN,NaN,,NaN,NaN,NaN,NaN,NaN,NaN,12,1,2020-11-10_09h26.05.454,Pirates_expt3,2020.1.2,MacIntel,60,NaN,NaN,NaN,NaN,NaN,NaN,NaN,,NaN,NaN,NaN,NaN,NaN,NaN,,NaN,NaN,NaN,NaN,NaN,NaN,"",,NaN,NaN,NaN,NaN,NaN,NaN,NaN,NaN,NaN,NaN,NaN,NaN,NaN,,NaN,0,0,0,0,1,NaN,,NaN,,NaN,,NaN
NaN,NaN,NaN,NaN,NaN,"",NaN,NaN,"",NaN,NaN,1,2,33,1,89,92,94,0.1,0.05,0.15,0.1,92,89,94,0.05,0.1,0.15,3,3,0,0,89,89,1928,57,s,3.421285,1,33,1928,57,143,0,,NaN,NaN,NaN,NaN,NaN,NaN,12,1,2020-11-10_09h26.05.454,Pirates_expt3,2020.1.2,MacIntel,60,NaN,NaN,NaN,NaN,NaN,NaN,NaN,,NaN,NaN,NaN,NaN,NaN,NaN,,NaN,NaN,NaN,NaN,NaN,NaN,"",,NaN,4,0,4,0,1,3,200,0,200,0,1,199,,NaN,200,0,200,0,1,199,,NaN,,NaN,,NaN
NaN,NaN,NaN,NaN,NaN,"",NaN,NaN,"",NaN,NaN,1,2,33,1,90,93,95,0.1,0.05,0.15,0.1,93,90,95,0.05,0.1,0.15,0,4,0,0,90,89,1928,58,0,0,0,33,1928,58,142,5.468,,NaN,NaN,NaN,NaN,NaN,NaN,12,1,2020-11-10_09h26.05.454,Pirates_expt3,2020.1.2,MacIntel,60,NaN,NaN,NaN,NaN,NaN,NaN,NaN,,NaN,NaN,NaN,NaN,NaN,NaN,,NaN,NaN,NaN,NaN,NaN,NaN,"",,NaN,4,0,4,0,1,3,200,0,200,0,1,199,,NaN,200,0,200,0,1,199,s,3.421285,,NaN,,NaN
NaN,NaN,NaN,NaN,NaN,"",NaN,NaN,"",NaN,NaN,NaN,NaN,NaN,NaN,NaN,NaN,NaN,NaN,NaN,NaN,NaN,NaN,NaN,NaN,NaN,NaN,NaN,NaN,NaN,,NaN,NaN,NaN,NaN,NaN,,NaN,NaN,NaN,NaN,NaN,NaN,NaN,,NaN,NaN,NaN,NaN,NaN,NaN,12,1,2020-11-10_09h26.05.454,Pirates_expt3,2020.1.2,MacIntel,60,NaN,NaN,NaN,NaN,NaN,NaN,NaN,,NaN,NaN,NaN,NaN,NaN,NaN,,NaN,NaN,NaN,NaN,NaN,NaN,"",,NaN,NaN,NaN,NaN,NaN,NaN,NaN,17,0,17,0,1,NaN,,NaN,NaN,NaN,NaN,NaN,NaN,NaN,,NaN,,NaN,,NaN
NaN,NaN,NaN,NaN,NaN,"",NaN,NaN,"",NaN,NaN,1,2,33,2,90,93,95,0.1,0.05,0.15,0.05,93,90,95,0.05,0.1,0.15,1,1,j,1.96536,0,0,1928,59,N/A,0,0,33,1928,59,141,0,,NaN,NaN,NaN,NaN,NaN,NaN,12,1,2020-11-10_09h26.05.454,Pirates_expt3,2020.1.2,MacIntel,60,NaN,NaN,NaN,NaN,NaN,NaN,NaN,,NaN,NaN,NaN,NaN,NaN,NaN,,NaN,NaN,NaN,NaN,NaN,NaN,"",,NaN,4,0,4,0,1,3,200,0,200,0,1,199,,NaN,NaN,NaN,NaN,NaN,NaN,NaN,,NaN,,NaN,,NaN
NaN,NaN,NaN,NaN,NaN,"",NaN,NaN,"",NaN,NaN,1,2,33,2,91,93,96,0.1,0.05,0.15,0.05,93,91,96,0.05,0.1,0.15,0,2,0,0,0,0,1928,59,N/A,0,0,33,1928,59,141,0,,NaN,NaN,NaN,NaN,NaN,NaN,12,1,2020-11-10_09h26.05.454,Pirates_expt3,2020.1.2,MacIntel,60,NaN,NaN,NaN,NaN,NaN,NaN,NaN,,NaN,NaN,NaN,NaN,NaN,NaN,,NaN,NaN,NaN,NaN,NaN,NaN,"",,NaN,4,0,4,0,1,3,200,0,200,0,1,199,j,1.96536,NaN,NaN,NaN,NaN,NaN,NaN,,NaN,,NaN,,NaN
NaN,NaN,NaN,NaN,NaN,"",NaN,NaN,"",NaN,NaN,1,2,32,2,91,93,96,0.1,0.05,0.15,0.05,93,91,96,0.05,0.1,0.15,2,3,0,0,93,93,1928,59,space,0.56649,0,32,1928,59,141,0,,NaN,NaN,NaN,NaN,NaN,NaN,12,1,2020-11-10_09h26.05.454,Pirates_expt3,2020.1.2,MacIntel,60,NaN,NaN,NaN,NaN,NaN,NaN,NaN,,NaN,NaN,NaN,NaN,NaN,NaN,,NaN,NaN,NaN,NaN,NaN,NaN,"",,NaN,4,0,4,0,1,3,200,0,200,0,1,199,,NaN,200,0,200,0,1,199,,NaN,,NaN,,NaN
NaN,NaN,NaN,NaN,NaN,"",NaN,NaN,"",NaN,NaN,1,2,33,2,92,93,96,0.1,0.05,0.15,0.05,93,92,96,0.05,0.1,0.15,0,4,0,0,93,93,2021,60,0,0,0,33,2021,60,140,0,,NaN,NaN,NaN,NaN,NaN,NaN,12,1,2020-11-10_09h26.05.454,Pirates_expt3,2020.1.2,MacIntel,60,NaN,NaN,NaN,NaN,NaN,NaN,NaN,,NaN,NaN,NaN,NaN,NaN,NaN,,NaN,NaN,NaN,NaN,NaN,NaN,"",,NaN,4,0,4,0,1,3,200,0,200,0,1,199,,NaN,200,0,200,0,1,199,space,0.56649,,NaN,,NaN
NaN,NaN,NaN,NaN,NaN,"",NaN,NaN,"",NaN,NaN,NaN,NaN,NaN,NaN,NaN,NaN,NaN,NaN,NaN,NaN,NaN,NaN,NaN,NaN,NaN,NaN,NaN,NaN,NaN,,NaN,NaN,NaN,NaN,NaN,,NaN,NaN,NaN,NaN,NaN,NaN,NaN,,NaN,NaN,NaN,NaN,NaN,NaN,12,1,2020-11-10_09h26.05.454,Pirates_expt3,2020.1.2,MacIntel,60,NaN,NaN,NaN,NaN,NaN,NaN,NaN,,NaN,NaN,NaN,NaN,NaN,NaN,,NaN,NaN,NaN,NaN,NaN,NaN,"",,NaN,NaN,NaN,NaN,NaN,NaN,NaN,NaN,NaN,NaN,NaN,NaN,NaN,,NaN,0,0,0,0,1,NaN,,NaN,,NaN,,NaN
NaN,NaN,NaN,NaN,NaN,"",NaN,NaN,"",NaN,NaN,1,2,33,2,92,88,96,0.1,0.05,0.15,0.05,88,92,96,0.05,0.1,0.15,3,3,0,0,88,88,2021,60,s,0.785695,1,33,2021,60,140,0,,NaN,NaN,NaN,NaN,NaN,NaN,12,1,2020-11-10_09h26.05.454,Pirates_expt3,2020.1.2,MacIntel,60,NaN,NaN,NaN,NaN,NaN,NaN,NaN,,NaN,NaN,NaN,NaN,NaN,NaN,,NaN,NaN,NaN,NaN,NaN,NaN,"",,NaN,4,0,4,0,1,3,200,0,200,0,1,199,,NaN,200,0,200,0,1,199,,NaN,,NaN,,NaN
NaN,NaN,NaN,NaN,NaN,"",NaN,NaN,"",NaN,NaN,1,2,33,2,92,89,97,0.1,0.05,0.15,0.05,89,92,97,0.05,0.1,0.15,0,4,0,0,89,88,2021,61,0,0,0,33,2021,61,139,2.95,,NaN,NaN,NaN,NaN,NaN,NaN,12,1,2020-11-10_09h26.05.454,Pirates_expt3,2020.1.2,MacIntel,60,NaN,NaN,NaN,NaN,NaN,NaN,NaN,,NaN,NaN,NaN,NaN,NaN,NaN,,NaN,NaN,NaN,NaN,NaN,NaN,"",,NaN,4,0,4,0,1,3,200,0,200,0,1,199,,NaN,200,0,200,0,1,199,s,0.785695,,NaN,,NaN
NaN,NaN,NaN,NaN,NaN,"",NaN,NaN,"",NaN,NaN,NaN,NaN,NaN,NaN,NaN,NaN,NaN,NaN,NaN,NaN,NaN,NaN,NaN,NaN,NaN,NaN,NaN,NaN,NaN,,NaN,NaN,NaN,NaN,NaN,,NaN,NaN,NaN,NaN,NaN,NaN,NaN,,NaN,NaN,NaN,NaN,NaN,NaN,12,1,2020-11-10_09h26.05.454,Pirates_expt3,2020.1.2,MacIntel,60,NaN,NaN,NaN,NaN,NaN,NaN,NaN,,NaN,NaN,NaN,NaN,NaN,NaN,,NaN,NaN,NaN,NaN,NaN,NaN,"",,NaN,NaN,NaN,NaN,NaN,NaN,NaN,18,0,18,0,1,NaN,,NaN,NaN,NaN,NaN,NaN,NaN,NaN,,NaN,,NaN,,NaN
NaN,NaN,NaN,NaN,NaN,"",NaN,NaN,"",NaN,NaN,1,2,33,3,92,89,97,0.1,0.05,0.15,0.15,89,92,97,0.05,0.1,0.15,1,1,k,1.09178,0,0,2021,62,N/A,0,0,33,2021,62,138,0,,NaN,NaN,NaN,NaN,NaN,NaN,12,1,2020-11-10_09h26.05.454,Pirates_expt3,2020.1.2,MacIntel,60,NaN,NaN,NaN,NaN,NaN,NaN,NaN,,NaN,NaN,NaN,NaN,NaN,NaN,,NaN,NaN,NaN,NaN,NaN,NaN,"",,NaN,4,0,4,0,1,3,200,0,200,0,1,199,,NaN,NaN,NaN,NaN,NaN,NaN,NaN,,NaN,,NaN,,NaN
NaN,NaN,NaN,NaN,NaN,"",NaN,NaN,"",NaN,NaN,1,2,33,3,93,89,97,0.1,0.05,0.15,0.15,89,93,97,0.05,0.1,0.15,0,2,0,0,0,0,2021,62,N/A,0,0,33,2021,62,138,0,,NaN,NaN,NaN,NaN,NaN,NaN,12,1,2020-11-10_09h26.05.454,Pirates_expt3,2020.1.2,MacIntel,60,NaN,NaN,NaN,NaN,NaN,NaN,NaN,,NaN,NaN,NaN,NaN,NaN,NaN,,NaN,NaN,NaN,NaN,NaN,NaN,"",,NaN,4,0,4,0,1,3,200,0,200,0,1,199,k,1.09178,NaN,NaN,NaN,NaN,NaN,NaN,,NaN,,NaN,,NaN
NaN,NaN,NaN,NaN,NaN,"",NaN,NaN,"",NaN,NaN,1,2,32,3,93,89,97,0.1,0.05,0.15,0.15,89,93,97,0.05,0.1,0.15,2,3,0,0,97,97,2021,62,space,0.418695,0,32,2021,62,138,0,,NaN,NaN,NaN,NaN,NaN,NaN,12,1,2020-11-10_09h26.05.454,Pirates_expt3,2020.1.2,MacIntel,60,NaN,NaN,NaN,NaN,NaN,NaN,NaN,,NaN,NaN,NaN,NaN,NaN,NaN,,NaN,NaN,NaN,NaN,NaN,NaN,"",,NaN,4,0,4,0,1,3,200,0,200,0,1,199,,NaN,200,0,200,0,1,199,,NaN,,NaN,,NaN
NaN,NaN,NaN,NaN,NaN,"",NaN,NaN,"",NaN,NaN,1,2,33,3,94,90,97,0.1,0.05,0.15,0.15,90,94,97,0.05,0.1,0.15,0,4,0,0,97,97,2119,63,0,0,0,33,2119,63,137,0,,NaN,NaN,NaN,NaN,NaN,NaN,12,1,2020-11-10_09h26.05.454,Pirates_expt3,2020.1.2,MacIntel,60,NaN,NaN,NaN,NaN,NaN,NaN,NaN,,NaN,NaN,NaN,NaN,NaN,NaN,,NaN,NaN,NaN,NaN,NaN,NaN,"",,NaN,4,0,4,0,1,3,200,0,200,0,1,199,,NaN,200,0,200,0,1,199,space,0.418695,,NaN,,NaN
NaN,NaN,NaN,NaN,NaN,"",NaN,NaN,"",NaN,NaN,NaN,NaN,NaN,NaN,NaN,NaN,NaN,NaN,NaN,NaN,NaN,NaN,NaN,NaN,NaN,NaN,NaN,NaN,NaN,,NaN,NaN,NaN,NaN,NaN,,NaN,NaN,NaN,NaN,NaN,NaN,NaN,,NaN,NaN,NaN,NaN,NaN,NaN,12,1,2020-11-10_09h26.05.454,Pirates_expt3,2020.1.2,MacIntel,60,NaN,NaN,NaN,NaN,NaN,NaN,NaN,,NaN,NaN,NaN,NaN,NaN,NaN,,NaN,NaN,NaN,NaN,NaN,NaN,"",,NaN,NaN,NaN,NaN,NaN,NaN,NaN,NaN,NaN,NaN,NaN,NaN,NaN,,NaN,0,0,0,0,1,NaN,,NaN,,NaN,,NaN
NaN,NaN,NaN,NaN,NaN,"",NaN,NaN,"",NaN,NaN,1,2,33,3,94,90,92,0.1,0.05,0.15,0.15,90,94,92,0.05,0.1,0.15,3,3,0,0,92,92,2119,63,s,0.60199,1,33,2119,63,137,0,,NaN,NaN,NaN,NaN,NaN,NaN,12,1,2020-11-10_09h26.05.454,Pirates_expt3,2020.1.2,MacIntel,60,NaN,NaN,NaN,NaN,NaN,NaN,NaN,,NaN,NaN,NaN,NaN,NaN,NaN,,NaN,NaN,NaN,NaN,NaN,NaN,"",,NaN,4,0,4,0,1,3,200,0,200,0,1,199,,NaN,200,0,200,0,1,199,,NaN,,NaN,,NaN
NaN,NaN,NaN,NaN,NaN,"",NaN,NaN,"",NaN,NaN,1,2,33,3,94,90,93,0.1,0.05,0.15,0.15,90,94,93,0.05,0.1,0.15,0,4,0,0,93,92,2119,64,0,0,0,33,2119,64,136,2.618,,NaN,NaN,NaN,NaN,NaN,NaN,12,1,2020-11-10_09h26.05.454,Pirates_expt3,2020.1.2,MacIntel,60,NaN,NaN,NaN,NaN,NaN,NaN,NaN,,NaN,NaN,NaN,NaN,NaN,NaN,,NaN,NaN,NaN,NaN,NaN,NaN,"",,NaN,4,0,4,0,1,3,200,0,200,0,1,199,,NaN,200,0,200,0,1,199,s,0.60199,,NaN,,NaN
NaN,NaN,NaN,NaN,NaN,"",NaN,NaN,"",NaN,NaN,NaN,NaN,NaN,NaN,NaN,NaN,NaN,NaN,NaN,NaN,NaN,NaN,NaN,NaN,NaN,NaN,NaN,NaN,NaN,,NaN,NaN,NaN,NaN,NaN,,NaN,NaN,NaN,NaN,NaN,NaN,NaN,,NaN,NaN,NaN,NaN,NaN,NaN,12,1,2020-11-10_09h26.05.454,Pirates_expt3,2020.1.2,MacIntel,60,NaN,NaN,NaN,NaN,NaN,NaN,NaN,,NaN,NaN,NaN,NaN,NaN,NaN,,NaN,NaN,NaN,NaN,NaN,NaN,"",,NaN,NaN,NaN,NaN,NaN,NaN,NaN,19,0,19,0,1,NaN,,NaN,NaN,NaN,NaN,NaN,NaN,NaN,,NaN,,NaN,,NaN
NaN,NaN,NaN,NaN,NaN,"",NaN,NaN,"",NaN,NaN,1,2,33,1,94,90,93,0.1,0.05,0.15,0.1,90,94,93,0.05,0.1,0.15,1,1,f,1.243885,0,0,2119,65,N/A,0,0,33,2119,65,135,0,,NaN,NaN,NaN,NaN,NaN,NaN,12,1,2020-11-10_09h26.05.454,Pirates_expt3,2020.1.2,MacIntel,60,NaN,NaN,NaN,NaN,NaN,NaN,NaN,,NaN,NaN,NaN,NaN,NaN,NaN,,NaN,NaN,NaN,NaN,NaN,NaN,"",,NaN,4,0,4,0,1,3,200,0,200,0,1,199,,NaN,NaN,NaN,NaN,NaN,NaN,NaN,,NaN,,NaN,,NaN
NaN,NaN,NaN,NaN,NaN,"",NaN,NaN,"",NaN,NaN,1,2,33,1,95,91,94,0.1,0.05,0.15,0.1,91,95,94,0.05,0.1,0.15,0,2,0,0,0,0,2119,65,N/A,0,0,33,2119,65,135,0,,NaN,NaN,NaN,NaN,NaN,NaN,12,1,2020-11-10_09h26.05.454,Pirates_expt3,2020.1.2,MacIntel,60,NaN,NaN,NaN,NaN,NaN,NaN,NaN,,NaN,NaN,NaN,NaN,NaN,NaN,,NaN,NaN,NaN,NaN,NaN,NaN,"",,NaN,4,0,4,0,1,3,200,0,200,0,1,199,f,1.243885,NaN,NaN,NaN,NaN,NaN,NaN,,NaN,,NaN,,NaN
NaN,NaN,NaN,NaN,NaN,"",NaN,NaN,"",NaN,NaN,1,2,32,1,95,91,94,0.1,0.05,0.15,0.1,91,95,94,0.05,0.1,0.15,2,3,0,0,95,95,2119,65,space,0.43212,0,32,2119,65,135,0,,NaN,NaN,NaN,NaN,NaN,NaN,12,1,2020-11-10_09h26.05.454,Pirates_expt3,2020.1.2,MacIntel,60,NaN,NaN,NaN,NaN,NaN,NaN,NaN,,NaN,NaN,NaN,NaN,NaN,NaN,,NaN,NaN,NaN,NaN,NaN,NaN,"",,NaN,4,0,4,0,1,3,200,0,200,0,1,199,,NaN,200,0,200,0,1,199,,NaN,,NaN,,NaN
NaN,NaN,NaN,NaN,NaN,"",NaN,NaN,"",NaN,NaN,1,2,33,1,95,91,95,0.1,0.05,0.15,0.1,91,95,95,0.05,0.1,0.15,0,4,0,0,95,95,2214,66,0,0,0,33,2214,66,134,0,,NaN,NaN,NaN,NaN,NaN,NaN,12,1,2020-11-10_09h26.05.454,Pirates_expt3,2020.1.2,MacIntel,60,NaN,NaN,NaN,NaN,NaN,NaN,NaN,,NaN,NaN,NaN,NaN,NaN,NaN,,NaN,NaN,NaN,NaN,NaN,NaN,"",,NaN,4,0,4,0,1,3,200,0,200,0,1,199,,NaN,200,0,200,0,1,199,space,0.43212,,NaN,,NaN
NaN,NaN,NaN,NaN,NaN,"",NaN,NaN,"",NaN,NaN,NaN,NaN,NaN,NaN,NaN,NaN,NaN,NaN,NaN,NaN,NaN,NaN,NaN,NaN,NaN,NaN,NaN,NaN,NaN,,NaN,NaN,NaN,NaN,NaN,,NaN,NaN,NaN,NaN,NaN,NaN,NaN,,NaN,NaN,NaN,NaN,NaN,NaN,12,1,2020-11-10_09h26.05.454,Pirates_expt3,2020.1.2,MacIntel,60,NaN,NaN,NaN,NaN,NaN,NaN,NaN,,NaN,NaN,NaN,NaN,NaN,NaN,,NaN,NaN,NaN,NaN,NaN,NaN,"",,NaN,NaN,NaN,NaN,NaN,NaN,NaN,NaN,NaN,NaN,NaN,NaN,NaN,,NaN,0,0,0,0,1,NaN,,NaN,,NaN,,NaN
NaN,NaN,NaN,NaN,NaN,"",NaN,NaN,"",NaN,NaN,1,2,33,1,90,91,95,0.1,0.05,0.15,0.1,91,90,95,0.05,0.1,0.15,3,3,0,0,90,90,2214,66,s,1.516,1,33,2214,66,134,0,,NaN,NaN,NaN,NaN,NaN,NaN,12,1,2020-11-10_09h26.05.454,Pirates_expt3,2020.1.2,MacIntel,60,NaN,NaN,NaN,NaN,NaN,NaN,NaN,,NaN,NaN,NaN,NaN,NaN,NaN,,NaN,NaN,NaN,NaN,NaN,NaN,"",,NaN,4,0,4,0,1,3,200,0,200,0,1,199,,NaN,200,0,200,0,1,199,,NaN,,NaN,,NaN
NaN,NaN,NaN,NaN,NaN,"",NaN,NaN,"",NaN,NaN,1,2,33,1,91,92,96,0.1,0.05,0.15,0.1,92,91,96,0.05,0.1,0.15,0,4,0,0,91,90,2214,67,0,0,0,33,2214,67,133,3.554,,NaN,NaN,NaN,NaN,NaN,NaN,12,1,2020-11-10_09h26.05.454,Pirates_expt3,2020.1.2,MacIntel,60,NaN,NaN,NaN,NaN,NaN,NaN,NaN,,NaN,NaN,NaN,NaN,NaN,NaN,,NaN,NaN,NaN,NaN,NaN,NaN,"",,NaN,4,0,4,0,1,3,200,0,200,0,1,199,,NaN,200,0,200,0,1,199,s,1.516,,NaN,,NaN
NaN,NaN,NaN,NaN,NaN,"",NaN,NaN,"",NaN,NaN,NaN,NaN,NaN,NaN,NaN,NaN,NaN,NaN,NaN,NaN,NaN,NaN,NaN,NaN,NaN,NaN,NaN,NaN,NaN,,NaN,NaN,NaN,NaN,NaN,,NaN,NaN,NaN,NaN,NaN,NaN,NaN,,NaN,NaN,NaN,NaN,NaN,NaN,12,1,2020-11-10_09h26.05.454,Pirates_expt3,2020.1.2,MacIntel,60,NaN,NaN,NaN,NaN,NaN,NaN,NaN,,NaN,NaN,NaN,NaN,NaN,NaN,,NaN,NaN,NaN,NaN,NaN,NaN,"",,NaN,NaN,NaN,NaN,NaN,NaN,NaN,20,0,20,0,1,NaN,,NaN,NaN,NaN,NaN,NaN,NaN,NaN,,NaN,,NaN,,NaN
NaN,NaN,NaN,NaN,NaN,"",NaN,NaN,"",NaN,NaN,1,2,33,2,91,92,96,0.1,0.05,0.15,0.05,92,91,96,0.05,0.1,0.15,1,1,j,0.90576,0,0,2214,68,N/A,0,0,33,2214,68,132,0,,NaN,NaN,NaN,NaN,NaN,NaN,12,1,2020-11-10_09h26.05.454,Pirates_expt3,2020.1.2,MacIntel,60,NaN,NaN,NaN,NaN,NaN,NaN,NaN,,NaN,NaN,NaN,NaN,NaN,NaN,,NaN,NaN,NaN,NaN,NaN,NaN,"",,NaN,4,0,4,0,1,3,200,0,200,0,1,199,,NaN,NaN,NaN,NaN,NaN,NaN,NaN,,NaN,,NaN,,NaN
NaN,NaN,NaN,NaN,NaN,"",NaN,NaN,"",NaN,NaN,1,2,33,2,92,92,96,0.1,0.05,0.15,0.05,92,92,96,0.05,0.1,0.15,0,2,0,0,0,0,2214,68,N/A,0,0,33,2214,68,132,0,,NaN,NaN,NaN,NaN,NaN,NaN,12,1,2020-11-10_09h26.05.454,Pirates_expt3,2020.1.2,MacIntel,60,NaN,NaN,NaN,NaN,NaN,NaN,NaN,,NaN,NaN,NaN,NaN,NaN,NaN,,NaN,NaN,NaN,NaN,NaN,NaN,"",,NaN,4,0,4,0,1,3,200,0,200,0,1,199,j,0.90576,NaN,NaN,NaN,NaN,NaN,NaN,,NaN,,NaN,,NaN
NaN,NaN,NaN,NaN,NaN,"",NaN,NaN,"",NaN,NaN,1,2,32,2,92,92,96,0.1,0.05,0.15,0.05,92,92,96,0.05,0.1,0.15,2,3,0,0,92,92,2214,68,space,0.48464,0,32,2214,68,132,0,,NaN,NaN,NaN,NaN,NaN,NaN,12,1,2020-11-10_09h26.05.454,Pirates_expt3,2020.1.2,MacIntel,60,NaN,NaN,NaN,NaN,NaN,NaN,NaN,,NaN,NaN,NaN,NaN,NaN,NaN,,NaN,NaN,NaN,NaN,NaN,NaN,"",,NaN,4,0,4,0,1,3,200,0,200,0,1,199,,NaN,200,0,200,0,1,199,,NaN,,NaN,,NaN
NaN,NaN,NaN,NaN,NaN,"",NaN,NaN,"",NaN,NaN,1,2,33,2,93,92,97,0.1,0.05,0.15,0.05,92,93,97,0.05,0.1,0.15,0,4,0,0,92,92,2307,69,0,0,0,33,2307,69,131,0,,NaN,NaN,NaN,NaN,NaN,NaN,12,1,2020-11-10_09h26.05.454,Pirates_expt3,2020.1.2,MacIntel,60,NaN,NaN,NaN,NaN,NaN,NaN,NaN,,NaN,NaN,NaN,NaN,NaN,NaN,,NaN,NaN,NaN,NaN,NaN,NaN,"",,NaN,4,0,4,0,1,3,200,0,200,0,1,199,,NaN,200,0,200,0,1,199,space,0.48464,,NaN,,NaN
NaN,NaN,NaN,NaN,NaN,"",NaN,NaN,"",NaN,NaN,NaN,NaN,NaN,NaN,NaN,NaN,NaN,NaN,NaN,NaN,NaN,NaN,NaN,NaN,NaN,NaN,NaN,NaN,NaN,,NaN,NaN,NaN,NaN,NaN,,NaN,NaN,NaN,NaN,NaN,NaN,NaN,,NaN,NaN,NaN,NaN,NaN,NaN,12,1,2020-11-10_09h26.05.454,Pirates_expt3,2020.1.2,MacIntel,60,NaN,NaN,NaN,NaN,NaN,NaN,NaN,,NaN,NaN,NaN,NaN,NaN,NaN,,NaN,NaN,NaN,NaN,NaN,NaN,"",,NaN,NaN,NaN,NaN,NaN,NaN,NaN,NaN,NaN,NaN,NaN,NaN,NaN,,NaN,0,0,0,0,1,NaN,,NaN,,NaN,,NaN
NaN,NaN,NaN,NaN,NaN,"",NaN,NaN,"",NaN,NaN,1,2,33,2,93,87,97,0.1,0.05,0.15,0.05,87,93,97,0.05,0.1,0.15,3,3,0,0,87,87,2307,69,s,3.11992,1,33,2307,69,131,0,,NaN,NaN,NaN,NaN,NaN,NaN,12,1,2020-11-10_09h26.05.454,Pirates_expt3,2020.1.2,MacIntel,60,NaN,NaN,NaN,NaN,NaN,NaN,NaN,,NaN,NaN,NaN,NaN,NaN,NaN,,NaN,NaN,NaN,NaN,NaN,NaN,"",,NaN,4,0,4,0,1,3,200,0,200,0,1,199,,NaN,200,0,200,0,1,199,,NaN,,NaN,,NaN
NaN,NaN,NaN,NaN,NaN,"",NaN,NaN,"",NaN,NaN,1,2,32,2,93,88,97,0.1,0.05,0.15,0.05,88,93,97,0.05,0.1,0.15,0,4,0,0,88,87,2307,70,0,0,0,32,2307,70,130,5.203,,NaN,NaN,NaN,NaN,NaN,NaN,12,1,2020-11-10_09h26.05.454,Pirates_expt3,2020.1.2,MacIntel,60,NaN,NaN,NaN,NaN,NaN,NaN,NaN,,NaN,NaN,NaN,NaN,NaN,NaN,,NaN,NaN,NaN,NaN,NaN,NaN,"",,NaN,4,0,4,0,1,3,200,0,200,0,1,199,,NaN,200,0,200,0,1,199,s,3.11992,,NaN,,NaN
NaN,NaN,NaN,NaN,NaN,"",NaN,NaN,"",NaN,NaN,NaN,NaN,NaN,NaN,NaN,NaN,NaN,NaN,NaN,NaN,NaN,NaN,NaN,NaN,NaN,NaN,NaN,NaN,NaN,,NaN,NaN,NaN,NaN,NaN,,NaN,NaN,NaN,NaN,NaN,NaN,NaN,,NaN,NaN,NaN,NaN,NaN,NaN,12,1,2020-11-10_09h26.05.454,Pirates_expt3,2020.1.2,MacIntel,60,NaN,NaN,NaN,NaN,NaN,NaN,NaN,,NaN,NaN,NaN,NaN,NaN,NaN,,NaN,NaN,NaN,NaN,NaN,NaN,"",,NaN,NaN,NaN,NaN,NaN,NaN,NaN,21,0,21,0,1,NaN,,NaN,NaN,NaN,NaN,NaN,NaN,NaN,,NaN,,NaN,,NaN
NaN,NaN,NaN,NaN,NaN,"",NaN,NaN,"",NaN,NaN,1,2,32,3,93,88,97,0.1,0.05,0.15,0.15,88,93,97,0.05,0.1,0.15,1,1,k,1.35485,0,0,2307,71,N/A,0,0,32,2307,71,129,0,,NaN,NaN,NaN,NaN,NaN,NaN,12,1,2020-11-10_09h26.05.454,Pirates_expt3,2020.1.2,MacIntel,60,NaN,NaN,NaN,NaN,NaN,NaN,NaN,,NaN,NaN,NaN,NaN,NaN,NaN,,NaN,NaN,NaN,NaN,NaN,NaN,"",,NaN,4,0,4,0,1,3,200,0,200,0,1,199,,NaN,NaN,NaN,NaN,NaN,NaN,NaN,,NaN,,NaN,,NaN
NaN,NaN,NaN,NaN,NaN,"",NaN,NaN,"",NaN,NaN,1,2,32,3,94,89,98,0.1,0.05,0.15,0.15,89,94,98,0.05,0.1,0.15,0,2,0,0,0,0,2307,71,N/A,0,0,32,2307,71,129,0,,NaN,NaN,NaN,NaN,NaN,NaN,12,1,2020-11-10_09h26.05.454,Pirates_expt3,2020.1.2,MacIntel,60,NaN,NaN,NaN,NaN,NaN,NaN,NaN,,NaN,NaN,NaN,NaN,NaN,NaN,,NaN,NaN,NaN,NaN,NaN,NaN,"",,NaN,4,0,4,0,1,3,200,0,200,0,1,199,k,1.35485,NaN,NaN,NaN,NaN,NaN,NaN,,NaN,,NaN,,NaN
NaN,NaN,NaN,NaN,NaN,"",NaN,NaN,"",NaN,NaN,1,2,32,3,94,89,98,0.1,0.05,0.15,0.15,89,94,98,0.05,0.1,0.15,2,3,0,0,98,98,2307,71,space,0.897015,0,32,2307,71,129,0,,NaN,NaN,NaN,NaN,NaN,NaN,12,1,2020-11-10_09h26.05.454,Pirates_expt3,2020.1.2,MacIntel,60,NaN,NaN,NaN,NaN,NaN,NaN,NaN,,NaN,NaN,NaN,NaN,NaN,NaN,,NaN,NaN,NaN,NaN,NaN,NaN,"",,NaN,4,0,4,0,1,3,200,0,200,0,1,199,,NaN,200,0,200,0,1,199,,NaN,,NaN,,NaN
NaN,NaN,NaN,NaN,NaN,"",NaN,NaN,"",NaN,NaN,1,2,33,3,94,89,98,0.1,0.05,0.15,0.15,89,94,98,0.05,0.1,0.15,0,4,0,0,98,98,2405,72,0,0,0,33,2405,72,128,0,,NaN,NaN,NaN,NaN,NaN,NaN,12,1,2020-11-10_09h26.05.454,Pirates_expt3,2020.1.2,MacIntel,60,NaN,NaN,NaN,NaN,NaN,NaN,NaN,,NaN,NaN,NaN,NaN,NaN,NaN,,NaN,NaN,NaN,NaN,NaN,NaN,"",,NaN,4,0,4,0,1,3,200,0,200,0,1,199,,NaN,200,0,200,0,1,199,space,0.897015,,NaN,,NaN
NaN,NaN,NaN,NaN,NaN,"",NaN,NaN,"",NaN,NaN,NaN,NaN,NaN,NaN,NaN,NaN,NaN,NaN,NaN,NaN,NaN,NaN,NaN,NaN,NaN,NaN,NaN,NaN,NaN,,NaN,NaN,NaN,NaN,NaN,,NaN,NaN,NaN,NaN,NaN,NaN,NaN,,NaN,NaN,NaN,NaN,NaN,NaN,12,1,2020-11-10_09h26.05.454,Pirates_expt3,2020.1.2,MacIntel,60,NaN,NaN,NaN,NaN,NaN,NaN,NaN,,NaN,NaN,NaN,NaN,NaN,NaN,,NaN,NaN,NaN,NaN,NaN,NaN,"",,NaN,NaN,NaN,NaN,NaN,NaN,NaN,NaN,NaN,NaN,NaN,NaN,NaN,,NaN,0,0,0,0,1,NaN,,NaN,,NaN,,NaN
NaN,NaN,NaN,NaN,NaN,"",NaN,NaN,"",NaN,NaN,1,2,33,3,94,89,93,0.1,0.05,0.15,0.15,89,94,93,0.05,0.1,0.15,3,3,0,0,93,93,2405,72,s,1.037005,1,33,2405,72,128,0,,NaN,NaN,NaN,NaN,NaN,NaN,12,1,2020-11-10_09h26.05.454,Pirates_expt3,2020.1.2,MacIntel,60,NaN,NaN,NaN,NaN,NaN,NaN,NaN,,NaN,NaN,NaN,NaN,NaN,NaN,,NaN,NaN,NaN,NaN,NaN,NaN,"",,NaN,4,0,4,0,1,3,200,0,200,0,1,199,,NaN,200,0,200,0,1,199,,NaN,,NaN,,NaN
NaN,NaN,NaN,NaN,NaN,"",NaN,NaN,"",NaN,NaN,1,2,32,3,95,90,94,0.1,0.05,0.15,0.15,90,95,94,0.05,0.1,0.15,0,4,0,0,94,93,2405,73,0,0,0,32,2405,73,127,3.535,,NaN,NaN,NaN,NaN,NaN,NaN,12,1,2020-11-10_09h26.05.454,Pirates_expt3,2020.1.2,MacIntel,60,NaN,NaN,NaN,NaN,NaN,NaN,NaN,,NaN,NaN,NaN,NaN,NaN,NaN,,NaN,NaN,NaN,NaN,NaN,NaN,"",,NaN,4,0,4,0,1,3,200,0,200,0,1,199,,NaN,200,0,200,0,1,199,s,1.037005,,NaN,,NaN
NaN,NaN,NaN,NaN,NaN,"",NaN,NaN,"",NaN,NaN,NaN,NaN,NaN,NaN,NaN,NaN,NaN,NaN,NaN,NaN,NaN,NaN,NaN,NaN,NaN,NaN,NaN,NaN,NaN,,NaN,NaN,NaN,NaN,NaN,,NaN,NaN,NaN,NaN,NaN,NaN,NaN,,NaN,NaN,NaN,NaN,NaN,NaN,12,1,2020-11-10_09h26.05.454,Pirates_expt3,2020.1.2,MacIntel,60,NaN,NaN,NaN,NaN,NaN,NaN,NaN,,NaN,NaN,NaN,NaN,NaN,NaN,,NaN,NaN,NaN,NaN,NaN,NaN,"",,NaN,NaN,NaN,NaN,NaN,NaN,NaN,22,0,22,0,1,NaN,,NaN,NaN,NaN,NaN,NaN,NaN,NaN,,NaN,,NaN,,NaN
NaN,NaN,NaN,NaN,NaN,"",NaN,NaN,"",NaN,NaN,1,2,32,1,95,90,94,0.1,0.05,0.15,0.1,90,95,94,0.05,0.1,0.15,1,1,f,1.818525,0,0,2405,74,N/A,0,0,32,2405,74,126,0,,NaN,NaN,NaN,NaN,NaN,NaN,12,1,2020-11-10_09h26.05.454,Pirates_expt3,2020.1.2,MacIntel,60,NaN,NaN,NaN,NaN,NaN,NaN,NaN,,NaN,NaN,NaN,NaN,NaN,NaN,,NaN,NaN,NaN,NaN,NaN,NaN,"",,NaN,4,0,4,0,1,3,200,0,200,0,1,199,,NaN,NaN,NaN,NaN,NaN,NaN,NaN,,NaN,,NaN,,NaN
NaN,NaN,NaN,NaN,NaN,"",NaN,NaN,"",NaN,NaN,1,2,32,1,95,90,95,0.1,0.05,0.15,0.1,90,95,95,0.05,0.1,0.15,0,2,0,0,0,0,2405,74,N/A,0,0,32,2405,74,126,0,,NaN,NaN,NaN,NaN,NaN,NaN,12,1,2020-11-10_09h26.05.454,Pirates_expt3,2020.1.2,MacIntel,60,NaN,NaN,NaN,NaN,NaN,NaN,NaN,,NaN,NaN,NaN,NaN,NaN,NaN,,NaN,NaN,NaN,NaN,NaN,NaN,"",,NaN,4,0,4,0,1,3,200,0,200,0,1,199,f,1.818525,NaN,NaN,NaN,NaN,NaN,NaN,,NaN,,NaN,,NaN
NaN,NaN,NaN,NaN,NaN,"",NaN,NaN,"",NaN,NaN,1,2,32,1,95,90,95,0.1,0.05,0.15,0.1,90,95,95,0.05,0.1,0.15,2,3,0,0,95,95,2405,74,space,0.55038,0,32,2405,74,126,0,,NaN,NaN,NaN,NaN,NaN,NaN,12,1,2020-11-10_09h26.05.454,Pirates_expt3,2020.1.2,MacIntel,60,NaN,NaN,NaN,NaN,NaN,NaN,NaN,,NaN,NaN,NaN,NaN,NaN,NaN,,NaN,NaN,NaN,NaN,NaN,NaN,"",,NaN,4,0,4,0,1,3,200,0,200,0,1,199,,NaN,200,0,200,0,1,199,,NaN,,NaN,,NaN
NaN,NaN,NaN,NaN,NaN,"",NaN,NaN,"",NaN,NaN,1,2,33,1,95,91,95,0.1,0.05,0.15,0.1,91,95,95,0.05,0.1,0.15,0,4,0,0,95,95,2501,75,0,0,0,33,2501,75,125,0,,NaN,NaN,NaN,NaN,NaN,NaN,12,1,2020-11-10_09h26.05.454,Pirates_expt3,2020.1.2,MacIntel,60,NaN,NaN,NaN,NaN,NaN,NaN,NaN,,NaN,NaN,NaN,NaN,NaN,NaN,,NaN,NaN,NaN,NaN,NaN,NaN,"",,NaN,4,0,4,0,1,3,200,0,200,0,1,199,,NaN,200,0,200,0,1,199,space,0.55038,,NaN,,NaN
NaN,NaN,NaN,NaN,NaN,"",NaN,NaN,"",NaN,NaN,NaN,NaN,NaN,NaN,NaN,NaN,NaN,NaN,NaN,NaN,NaN,NaN,NaN,NaN,NaN,NaN,NaN,NaN,NaN,,NaN,NaN,NaN,NaN,NaN,,NaN,NaN,NaN,NaN,NaN,NaN,NaN,,NaN,NaN,NaN,NaN,NaN,NaN,12,1,2020-11-10_09h26.05.454,Pirates_expt3,2020.1.2,MacIntel,60,NaN,NaN,NaN,NaN,NaN,NaN,NaN,,NaN,NaN,NaN,NaN,NaN,NaN,,NaN,NaN,NaN,NaN,NaN,NaN,"",,NaN,NaN,NaN,NaN,NaN,NaN,NaN,NaN,NaN,NaN,NaN,NaN,NaN,,NaN,0,0,0,0,1,NaN,,NaN,,NaN,,NaN
NaN,NaN,NaN,NaN,NaN,"",NaN,NaN,"",NaN,NaN,1,2,33,1,91,91,95,0.1,0.05,0.15,0.1,91,91,95,0.05,0.1,0.15,3,3,0,0,91,91,2501,75,s,0.72258,1,33,2501,75,125,0,,NaN,NaN,NaN,NaN,NaN,NaN,12,1,2020-11-10_09h26.05.454,Pirates_expt3,2020.1.2,MacIntel,60,NaN,NaN,NaN,NaN,NaN,NaN,NaN,,NaN,NaN,NaN,NaN,NaN,NaN,,NaN,NaN,NaN,NaN,NaN,NaN,"",,NaN,4,0,4,0,1,3,200,0,200,0,1,199,,NaN,200,0,200,0,1,199,,NaN,,NaN,,NaN
NaN,NaN,NaN,NaN,NaN,"",NaN,NaN,"",NaN,NaN,1,2,32,1,92,91,96,0.1,0.05,0.15,0.1,91,92,96,0.05,0.1,0.15,0,4,0,0,92,91,2501,76,0,0,0,32,2501,76,124,2.868,,NaN,NaN,NaN,NaN,NaN,NaN,12,1,2020-11-10_09h26.05.454,Pirates_expt3,2020.1.2,MacIntel,60,NaN,NaN,NaN,NaN,NaN,NaN,NaN,,NaN,NaN,NaN,NaN,NaN,NaN,,NaN,NaN,NaN,NaN,NaN,NaN,"",,NaN,4,0,4,0,1,3,200,0,200,0,1,199,,NaN,200,0,200,0,1,199,s,0.72258,,NaN,,NaN
NaN,NaN,NaN,NaN,NaN,"",NaN,NaN,"",NaN,NaN,NaN,NaN,NaN,NaN,NaN,NaN,NaN,NaN,NaN,NaN,NaN,NaN,NaN,NaN,NaN,NaN,NaN,NaN,NaN,,NaN,NaN,NaN,NaN,NaN,,NaN,NaN,NaN,NaN,NaN,NaN,NaN,,NaN,NaN,NaN,NaN,NaN,NaN,12,1,2020-11-10_09h26.05.454,Pirates_expt3,2020.1.2,MacIntel,60,NaN,NaN,NaN,NaN,NaN,NaN,NaN,,NaN,NaN,NaN,NaN,NaN,NaN,,NaN,NaN,NaN,NaN,NaN,NaN,"",,NaN,NaN,NaN,NaN,NaN,NaN,NaN,23,0,23,0,1,NaN,,NaN,NaN,NaN,NaN,NaN,NaN,NaN,,NaN,,NaN,,NaN
NaN,NaN,NaN,NaN,NaN,"",NaN,NaN,"",NaN,NaN,1,2,32,2,92,91,96,0.1,0.05,0.15,0.05,91,92,96,0.05,0.1,0.15,1,1,j,1.37613,0,0,2501,77,N/A,0,0,32,2501,77,123,0,,NaN,NaN,NaN,NaN,NaN,NaN,12,1,2020-11-10_09h26.05.454,Pirates_expt3,2020.1.2,MacIntel,60,NaN,NaN,NaN,NaN,NaN,NaN,NaN,,NaN,NaN,NaN,NaN,NaN,NaN,,NaN,NaN,NaN,NaN,NaN,NaN,"",,NaN,4,0,4,0,1,3,200,0,200,0,1,199,,NaN,NaN,NaN,NaN,NaN,NaN,NaN,,NaN,,NaN,,NaN
NaN,NaN,NaN,NaN,NaN,"",NaN,NaN,"",NaN,NaN,1,2,32,2,92,92,96,0.1,0.05,0.15,0.05,92,92,96,0.05,0.1,0.15,0,2,0,0,0,0,2501,77,N/A,0,0,32,2501,77,123,0,,NaN,NaN,NaN,NaN,NaN,NaN,12,1,2020-11-10_09h26.05.454,Pirates_expt3,2020.1.2,MacIntel,60,NaN,NaN,NaN,NaN,NaN,NaN,NaN,,NaN,NaN,NaN,NaN,NaN,NaN,,NaN,NaN,NaN,NaN,NaN,NaN,"",,NaN,4,0,4,0,1,3,200,0,200,0,1,199,j,1.37613,NaN,NaN,NaN,NaN,NaN,NaN,,NaN,,NaN,,NaN
NaN,NaN,NaN,NaN,NaN,"",NaN,NaN,"",NaN,NaN,1,2,32,2,92,92,96,0.1,0.05,0.15,0.05,92,92,96,0.05,0.1,0.15,2,3,0,0,92,92,2501,77,space,0.34138,0,32,2501,77,123,0,,NaN,NaN,NaN,NaN,NaN,NaN,12,1,2020-11-10_09h26.05.454,Pirates_expt3,2020.1.2,MacIntel,60,NaN,NaN,NaN,NaN,NaN,NaN,NaN,,NaN,NaN,NaN,NaN,NaN,NaN,,NaN,NaN,NaN,NaN,NaN,NaN,"",,NaN,4,0,4,0,1,3,200,0,200,0,1,199,,NaN,200,0,200,0,1,199,,NaN,,NaN,,NaN
NaN,NaN,NaN,NaN,NaN,"",NaN,NaN,"",NaN,NaN,1,2,33,2,93,92,97,0.1,0.05,0.15,0.05,92,93,97,0.05,0.1,0.15,0,4,0,0,92,92,2593,78,0,0,0,33,2593,78,122,0,,NaN,NaN,NaN,NaN,NaN,NaN,12,1,2020-11-10_09h26.05.454,Pirates_expt3,2020.1.2,MacIntel,60,NaN,NaN,NaN,NaN,NaN,NaN,NaN,,NaN,NaN,NaN,NaN,NaN,NaN,,NaN,NaN,NaN,NaN,NaN,NaN,"",,NaN,4,0,4,0,1,3,200,0,200,0,1,199,,NaN,200,0,200,0,1,199,space,0.34138,,NaN,,NaN
NaN,NaN,NaN,NaN,NaN,"",NaN,NaN,"",NaN,NaN,NaN,NaN,NaN,NaN,NaN,NaN,NaN,NaN,NaN,NaN,NaN,NaN,NaN,NaN,NaN,NaN,NaN,NaN,NaN,,NaN,NaN,NaN,NaN,NaN,,NaN,NaN,NaN,NaN,NaN,NaN,NaN,,NaN,NaN,NaN,NaN,NaN,NaN,12,1,2020-11-10_09h26.05.454,Pirates_expt3,2020.1.2,MacIntel,60,NaN,NaN,NaN,NaN,NaN,NaN,NaN,,NaN,NaN,NaN,NaN,NaN,NaN,,NaN,NaN,NaN,NaN,NaN,NaN,"",,NaN,NaN,NaN,NaN,NaN,NaN,NaN,NaN,NaN,NaN,NaN,NaN,NaN,,NaN,0,0,0,0,1,NaN,,NaN,,NaN,,NaN
NaN,NaN,NaN,NaN,NaN,"",NaN,NaN,"",NaN,NaN,1,2,33,2,93,87,97,0.1,0.05,0.15,0.05,87,93,97,0.05,0.1,0.15,3,3,0,0,87,87,2593,78,s,0.165975,1,33,2593,78,122,0,,NaN,NaN,NaN,NaN,NaN,NaN,12,1,2020-11-10_09h26.05.454,Pirates_expt3,2020.1.2,MacIntel,60,NaN,NaN,NaN,NaN,NaN,NaN,NaN,,NaN,NaN,NaN,NaN,NaN,NaN,,NaN,NaN,NaN,NaN,NaN,NaN,"",,NaN,4,0,4,0,1,3,200,0,200,0,1,199,,NaN,200,0,200,0,1,199,,NaN,,NaN,,NaN
NaN,NaN,NaN,NaN,NaN,"",NaN,NaN,"",NaN,NaN,1,2,32,2,94,88,97,0.1,0.05,0.15,0.05,88,94,97,0.05,0.1,0.15,0,4,0,0,88,87,2593,79,0,0,0,32,2593,79,121,2.099,,NaN,NaN,NaN,NaN,NaN,NaN,12,1,2020-11-10_09h26.05.454,Pirates_expt3,2020.1.2,MacIntel,60,NaN,NaN,NaN,NaN,NaN,NaN,NaN,,NaN,NaN,NaN,NaN,NaN,NaN,,NaN,NaN,NaN,NaN,NaN,NaN,"",,NaN,4,0,4,0,1,3,200,0,200,0,1,199,,NaN,200,0,200,0,1,199,s,0.165975,,NaN,,NaN
NaN,NaN,NaN,NaN,NaN,"",NaN,NaN,"",NaN,NaN,NaN,NaN,NaN,NaN,NaN,NaN,NaN,NaN,NaN,NaN,NaN,NaN,NaN,NaN,NaN,NaN,NaN,NaN,NaN,,NaN,NaN,NaN,NaN,NaN,,NaN,NaN,NaN,NaN,NaN,NaN,NaN,,NaN,NaN,NaN,NaN,NaN,NaN,12,1,2020-11-10_09h26.05.454,Pirates_expt3,2020.1.2,MacIntel,60,NaN,NaN,NaN,NaN,NaN,NaN,NaN,,NaN,NaN,NaN,NaN,NaN,NaN,,NaN,NaN,NaN,NaN,NaN,NaN,"",,NaN,NaN,NaN,NaN,NaN,NaN,NaN,24,0,24,0,1,NaN,,NaN,NaN,NaN,NaN,NaN,NaN,NaN,,NaN,,NaN,,NaN
NaN,NaN,NaN,NaN,NaN,"",NaN,NaN,"",NaN,NaN,1,2,32,3,94,88,97,0.1,0.05,0.15,0.15,88,94,97,0.05,0.1,0.15,1,1,k,0.99549,0,0,2593,80,N/A,0,0,32,2593,80,120,0,,NaN,NaN,NaN,NaN,NaN,NaN,12,1,2020-11-10_09h26.05.454,Pirates_expt3,2020.1.2,MacIntel,60,NaN,NaN,NaN,NaN,NaN,NaN,NaN,,NaN,NaN,NaN,NaN,NaN,NaN,,NaN,NaN,NaN,NaN,NaN,NaN,"",,NaN,4,0,4,0,1,3,200,0,200,0,1,199,,NaN,NaN,NaN,NaN,NaN,NaN,NaN,,NaN,,NaN,,NaN
NaN,NaN,NaN,NaN,NaN,"",NaN,NaN,"",NaN,NaN,1,2,32,3,94,88,98,0.1,0.05,0.15,0.15,88,94,98,0.05,0.1,0.15,0,2,0,0,0,0,2593,80,N/A,0,0,32,2593,80,120,0,,NaN,NaN,NaN,NaN,NaN,NaN,12,1,2020-11-10_09h26.05.454,Pirates_expt3,2020.1.2,MacIntel,60,NaN,NaN,NaN,NaN,NaN,NaN,NaN,,NaN,NaN,NaN,NaN,NaN,NaN,,NaN,NaN,NaN,NaN,NaN,NaN,"",,NaN,4,0,4,0,1,3,200,0,200,0,1,199,k,0.99549,NaN,NaN,NaN,NaN,NaN,NaN,,NaN,,NaN,,NaN
NaN,NaN,NaN,NaN,NaN,"",NaN,NaN,"",NaN,NaN,1,2,32,3,94,88,98,0.1,0.05,0.15,0.15,88,94,98,0.05,0.1,0.15,2,3,0,0,98,98,2593,80,space,1.68755,0,32,2593,80,120,0,,NaN,NaN,NaN,NaN,NaN,NaN,12,1,2020-11-10_09h26.05.454,Pirates_expt3,2020.1.2,MacIntel,60,NaN,NaN,NaN,NaN,NaN,NaN,NaN,,NaN,NaN,NaN,NaN,NaN,NaN,,NaN,NaN,NaN,NaN,NaN,NaN,"",,NaN,4,0,4,0,1,3,200,0,200,0,1,199,,NaN,200,0,200,0,1,199,,NaN,,NaN,,NaN
NaN,NaN,NaN,NaN,NaN,"",NaN,NaN,"",NaN,NaN,1,2,33,3,95,89,98,0.1,0.05,0.15,0.15,89,95,98,0.05,0.1,0.15,0,4,0,0,98,98,2691,81,0,0,0,33,2691,81,119,0,,NaN,NaN,NaN,NaN,NaN,NaN,12,1,2020-11-10_09h26.05.454,Pirates_expt3,2020.1.2,MacIntel,60,NaN,NaN,NaN,NaN,NaN,NaN,NaN,,NaN,NaN,NaN,NaN,NaN,NaN,,NaN,NaN,NaN,NaN,NaN,NaN,"",,NaN,4,0,4,0,1,3,200,0,200,0,1,199,,NaN,200,0,200,0,1,199,space,1.68755,,NaN,,NaN
NaN,NaN,NaN,NaN,NaN,"",NaN,NaN,"",NaN,NaN,NaN,NaN,NaN,NaN,NaN,NaN,NaN,NaN,NaN,NaN,NaN,NaN,NaN,NaN,NaN,NaN,NaN,NaN,NaN,,NaN,NaN,NaN,NaN,NaN,,NaN,NaN,NaN,NaN,NaN,NaN,NaN,,NaN,NaN,NaN,NaN,NaN,NaN,12,1,2020-11-10_09h26.05.454,Pirates_expt3,2020.1.2,MacIntel,60,NaN,NaN,NaN,NaN,NaN,NaN,NaN,,NaN,NaN,NaN,NaN,NaN,NaN,,NaN,NaN,NaN,NaN,NaN,NaN,"",,NaN,NaN,NaN,NaN,NaN,NaN,NaN,NaN,NaN,NaN,NaN,NaN,NaN,,NaN,0,0,0,0,1,NaN,,NaN,,NaN,,NaN
NaN,NaN,NaN,NaN,NaN,"",NaN,NaN,"",NaN,NaN,1,2,33,3,95,89,93,0.1,0.05,0.15,0.15,89,95,93,0.05,0.1,0.15,3,3,0,0,93,93,2691,81,s,2.404845,1,33,2691,81,119,0,,NaN,NaN,NaN,NaN,NaN,NaN,12,1,2020-11-10_09h26.05.454,Pirates_expt3,2020.1.2,MacIntel,60,NaN,NaN,NaN,NaN,NaN,NaN,NaN,,NaN,NaN,NaN,NaN,NaN,NaN,,NaN,NaN,NaN,NaN,NaN,NaN,"",,NaN,4,0,4,0,1,3,200,0,200,0,1,199,,NaN,200,0,200,0,1,199,,NaN,,NaN,,NaN
NaN,NaN,NaN,NaN,NaN,"",NaN,NaN,"",NaN,NaN,1,2,32,3,95,89,94,0.1,0.05,0.15,0.15,89,95,94,0.05,0.1,0.15,0,4,0,0,94,93,2691,82,0,0,0,32,2691,82,118,5.684,,NaN,NaN,NaN,NaN,NaN,NaN,12,1,2020-11-10_09h26.05.454,Pirates_expt3,2020.1.2,MacIntel,60,NaN,NaN,NaN,NaN,NaN,NaN,NaN,,NaN,NaN,NaN,NaN,NaN,NaN,,NaN,NaN,NaN,NaN,NaN,NaN,"",,NaN,4,0,4,0,1,3,200,0,200,0,1,199,,NaN,200,0,200,0,1,199,s,2.404845,,NaN,,NaN
NaN,NaN,NaN,NaN,NaN,"",NaN,NaN,"",NaN,NaN,NaN,NaN,NaN,NaN,NaN,NaN,NaN,NaN,NaN,NaN,NaN,NaN,NaN,NaN,NaN,NaN,NaN,NaN,NaN,,NaN,NaN,NaN,NaN,NaN,,NaN,NaN,NaN,NaN,NaN,NaN,NaN,,NaN,NaN,NaN,NaN,NaN,NaN,12,1,2020-11-10_09h26.05.454,Pirates_expt3,2020.1.2,MacIntel,60,NaN,NaN,NaN,NaN,NaN,NaN,NaN,,NaN,NaN,NaN,NaN,NaN,NaN,,NaN,NaN,NaN,NaN,NaN,NaN,"",,NaN,NaN,NaN,NaN,NaN,NaN,NaN,25,0,25,0,1,NaN,,NaN,NaN,NaN,NaN,NaN,NaN,NaN,,NaN,,NaN,,NaN
