consent_given,screeningQ1,screeningQ2,age,gender,startingValues,rewardVec,decay_rate,replenishRates,travel_duration,feedback_duration,blk_number,blk_type,meanRewardBlock,currentPatchPosition,patchValueLeft,patchValueTop,patchValueRight,patchReplenishLeft,patchReplenishTop,patchReplenishRight,currentPatchReplenishRate,patchValueSlow,patchValueMedium,patchValueFast,patchReplenishSlow,patchReplenishMedium,patchReplenishFast,decisionType,trialPhase,patch_selection_key,patch_selection_RT,actual_rew_gain,rew_fbk_displayed,blk_points,blk_actions,exploit_phase_key,exploit_phase_RT,num_exploit_actions,meanRewardEntireExperiment,total_points,total_actions,actions_remaining,timeInPatch_seconds_,task_instruc_resp_keys,task_instruc_resp_rt,trials_welcome_thisRepN,trials_welcome_thisTrialN,trials_welcome_thisN,trials_welcome_thisIndex,trials_welcome_ran,session,date,expName,psychopyVersion,OS,frameRate,slider_response,slider_rt,trials_screening_thisRepN,trials_screening_thisTrialN,trials_screening_thisN,trials_screening_thisIndex,trials_screening_ran,demo_resp_keys,demo_resp_rt,trials_demographics_thisRepN,trials_demographics_thisTrialN,trials_demographics_thisN,trials_demographics_thisIndex,trials_demographics_ran,key_resp_keys,key_resp_rt,trials_instructions_thisRepN,trials_instructions_thisTrialN,trials_instructions_thisN,trials_instructions_thisIndex,trials_instructions_ran,rewardVectorToManipulate,blk_instruc_resp_keys,blk_instruc_resp_rt,blk_loop_thisRepN,blk_loop_thisTrialN,blk_loop_thisN,blk_loop_thisIndex,blk_loop_ran,blk_loop_order,trials_thisRepN,trials_thisTrialN,trials_thisN,trials_thisIndex,trials_ran,trials_order,sel_resp_keys,sel_resp_rt,exploit_loop_thisRepN,exploit_loop_thisTrialN,exploit_loop_thisN,exploit_loop_thisIndex,exploit_loop_ran,exploit_loop_order,exploit_resp_keys,exploit_resp_rt,post_blk_resp_keys,post_blk_resp_rt,closing_resp_keys,closing_resp_rt,participant
0,0,0,0,0,"0",0,0,"0",0,0,0,0,0,0,0,0,0,0,0,0,0,0,0,0,0,0,0,0,0,0,0,0,0,0,0,0,0,0,0,NaN,NaN,NaN,0,space,210.844,0,0,0,0,1,1,2020-11-12_18h32.43.233,Pirates_expt3,02.01.20,Win32,60,NaN,,NaN,NaN,NaN,NaN,NaN,,,NaN,NaN,NaN,NaN,NaN,,,NaN,NaN,NaN,NaN,NaN,"",,,NaN,NaN,NaN,NaN,NaN,NaN,NaN,NaN,NaN,NaN,NaN,NaN,,NaN,NaN,NaN,NaN,NaN,NaN,NaN,,NaN,,NaN,,NaN,2
NaN,NaN,NaN,NaN,NaN,"",NaN,NaN,"",NaN,,NaN,NaN,NaN,NaN,NaN,NaN,NaN,NaN,NaN,NaN,NaN,NaN,NaN,NaN,NaN,NaN,NaN,NaN,NaN,,,NaN,NaN,NaN,NaN,,,NaN,NaN,NaN,NaN,NaN,,space,305.579,1,0,1,0,1,1,2020-11-12_18h32.43.233,Pirates_expt3,02.01.20,Win32,60,NaN,,NaN,NaN,NaN,NaN,NaN,,,NaN,NaN,NaN,NaN,NaN,,,NaN,NaN,NaN,NaN,NaN,"",,,NaN,NaN,NaN,NaN,NaN,NaN,NaN,NaN,NaN,NaN,NaN,NaN,,NaN,NaN,NaN,NaN,NaN,NaN,NaN,,NaN,,NaN,,NaN,2
NaN,NaN,NaN,NaN,NaN,"",NaN,NaN,"",NaN,,NaN,NaN,NaN,NaN,NaN,NaN,NaN,NaN,NaN,NaN,NaN,NaN,NaN,NaN,NaN,NaN,NaN,NaN,NaN,,,NaN,NaN,NaN,NaN,,,NaN,NaN,NaN,NaN,NaN,,space,1.097.525,2,0,2,0,1,1,2020-11-12_18h32.43.233,Pirates_expt3,02.01.20,Win32,60,NaN,,NaN,NaN,NaN,NaN,NaN,,,NaN,NaN,NaN,NaN,NaN,,,NaN,NaN,NaN,NaN,NaN,"",,,NaN,NaN,NaN,NaN,NaN,NaN,NaN,NaN,NaN,NaN,NaN,NaN,,NaN,NaN,NaN,NaN,NaN,NaN,NaN,,NaN,,NaN,,NaN,2
NaN,NaN,NaN,NaN,NaN,"",NaN,NaN,"",NaN,,NaN,NaN,NaN,NaN,NaN,NaN,NaN,NaN,NaN,NaN,NaN,NaN,NaN,NaN,NaN,NaN,NaN,NaN,NaN,,,NaN,NaN,NaN,NaN,,,NaN,NaN,NaN,NaN,NaN,,space,242.011,3,0,3,0,1,1,2020-11-12_18h32.43.233,Pirates_expt3,02.01.20,Win32,60,NaN,,NaN,NaN,NaN,NaN,NaN,,,NaN,NaN,NaN,NaN,NaN,,,NaN,NaN,NaN,NaN,NaN,"",,,NaN,NaN,NaN,NaN,NaN,NaN,NaN,NaN,NaN,NaN,NaN,NaN,,NaN,NaN,NaN,NaN,NaN,NaN,NaN,,NaN,,NaN,,NaN,2
NaN,NaN,NaN,NaN,NaN,"",NaN,NaN,"",NaN,,NaN,NaN,NaN,NaN,NaN,NaN,NaN,NaN,NaN,NaN,NaN,NaN,NaN,NaN,NaN,NaN,NaN,NaN,NaN,,,NaN,NaN,NaN,NaN,,,NaN,NaN,NaN,NaN,NaN,,space,141.142,4,0,4,0,1,1,2020-11-12_18h32.43.233,Pirates_expt3,02.01.20,Win32,60,NaN,,NaN,NaN,NaN,NaN,NaN,,,NaN,NaN,NaN,NaN,NaN,,,NaN,NaN,NaN,NaN,NaN,"",,,NaN,NaN,NaN,NaN,NaN,NaN,NaN,NaN,NaN,NaN,NaN,NaN,,NaN,NaN,NaN,NaN,NaN,NaN,NaN,,NaN,,NaN,,NaN,2
NaN,NaN,NaN,NaN,NaN,"",NaN,NaN,"",NaN,,NaN,NaN,NaN,NaN,NaN,NaN,NaN,NaN,NaN,NaN,NaN,NaN,NaN,NaN,NaN,NaN,NaN,NaN,NaN,,,NaN,NaN,NaN,NaN,,,NaN,NaN,NaN,NaN,NaN,,space,4.613.775,5,0,5,0,1,1,2020-11-12_18h32.43.233,Pirates_expt3,02.01.20,Win32,60,NaN,,NaN,NaN,NaN,NaN,NaN,,,NaN,NaN,NaN,NaN,NaN,,,NaN,NaN,NaN,NaN,NaN,"",,,NaN,NaN,NaN,NaN,NaN,NaN,NaN,NaN,NaN,NaN,NaN,NaN,,NaN,NaN,NaN,NaN,NaN,NaN,NaN,,NaN,,NaN,,NaN,2
1,1,NaN,NaN,NaN,"",NaN,NaN,"",NaN,,NaN,NaN,NaN,NaN,NaN,NaN,NaN,NaN,NaN,NaN,NaN,NaN,NaN,NaN,NaN,NaN,NaN,NaN,NaN,,,NaN,NaN,NaN,NaN,,,NaN,NaN,NaN,NaN,NaN,,,,NaN,NaN,NaN,NaN,NaN,1,2020-11-12_18h32.43.233,Pirates_expt3,02.01.20,Win32,60,4,94.539.855,0,0,0,0,1,,,NaN,NaN,NaN,NaN,NaN,,,NaN,NaN,NaN,NaN,NaN,"",,,NaN,NaN,NaN,NaN,NaN,NaN,NaN,NaN,NaN,NaN,NaN,NaN,,NaN,NaN,NaN,NaN,NaN,NaN,NaN,,NaN,,NaN,,NaN,2
NaN,NaN,1,NaN,NaN,"",NaN,NaN,"",NaN,,NaN,NaN,NaN,NaN,NaN,NaN,NaN,NaN,NaN,NaN,NaN,NaN,NaN,NaN,NaN,NaN,NaN,NaN,NaN,,,NaN,NaN,NaN,NaN,,,NaN,NaN,NaN,NaN,NaN,,,,NaN,NaN,NaN,NaN,NaN,1,2020-11-12_18h32.43.233,Pirates_expt3,02.01.20,Win32,60,3,5.604.865,1,0,1,0,1,,,NaN,NaN,NaN,NaN,NaN,,,NaN,NaN,NaN,NaN,NaN,"",,,NaN,NaN,NaN,NaN,NaN,NaN,NaN,NaN,NaN,NaN,NaN,NaN,,NaN,NaN,NaN,NaN,NaN,NaN,NaN,,NaN,,NaN,,NaN,2
NaN,NaN,NaN,32,NaN,"",NaN,NaN,"",NaN,,NaN,NaN,NaN,NaN,NaN,NaN,NaN,NaN,NaN,NaN,NaN,NaN,NaN,NaN,NaN,NaN,NaN,NaN,NaN,,,NaN,NaN,NaN,NaN,,,NaN,NaN,NaN,NaN,NaN,,,,NaN,NaN,NaN,NaN,NaN,1,2020-11-12_18h32.43.233,Pirates_expt3,02.01.20,Win32,60,NaN,,NaN,NaN,NaN,NaN,NaN,return,1.065.522,0,0,0,0,1,,,NaN,NaN,NaN,NaN,NaN,"",,,NaN,NaN,NaN,NaN,NaN,NaN,NaN,NaN,NaN,NaN,NaN,NaN,,NaN,NaN,NaN,NaN,NaN,NaN,NaN,,NaN,,NaN,,NaN,2
NaN,NaN,NaN,NaN,0,"",NaN,NaN,"",NaN,,NaN,NaN,NaN,NaN,NaN,NaN,NaN,NaN,NaN,NaN,NaN,NaN,NaN,NaN,NaN,NaN,NaN,NaN,NaN,,,NaN,NaN,NaN,NaN,,,NaN,NaN,NaN,NaN,NaN,,,,NaN,NaN,NaN,NaN,NaN,1,2020-11-12_18h32.43.233,Pirates_expt3,02.01.20,Win32,60,NaN,,NaN,NaN,NaN,NaN,NaN,return,4.967.815,1,0,1,0,1,,,NaN,NaN,NaN,NaN,NaN,"",,,NaN,NaN,NaN,NaN,NaN,NaN,NaN,NaN,NaN,NaN,NaN,NaN,,NaN,NaN,NaN,NaN,NaN,NaN,NaN,,NaN,,NaN,,NaN,2
NaN,NaN,NaN,NaN,NaN,"",NaN,NaN,"",NaN,,NaN,NaN,NaN,NaN,NaN,NaN,NaN,NaN,NaN,NaN,NaN,NaN,NaN,NaN,NaN,NaN,NaN,NaN,NaN,,,NaN,NaN,NaN,NaN,,,NaN,NaN,NaN,NaN,NaN,,,,NaN,NaN,NaN,NaN,NaN,1,2020-11-12_18h32.43.233,Pirates_expt3,02.01.20,Win32,60,NaN,,NaN,NaN,NaN,NaN,NaN,,,NaN,NaN,NaN,NaN,NaN,space,33.139.365,0,0,0,0,1,"",,,NaN,NaN,NaN,NaN,NaN,NaN,NaN,NaN,NaN,NaN,NaN,NaN,,NaN,NaN,NaN,NaN,NaN,NaN,NaN,,NaN,,NaN,,NaN,2
NaN,NaN,NaN,NaN,NaN,"",NaN,NaN,"",NaN,,NaN,NaN,NaN,NaN,NaN,NaN,NaN,NaN,NaN,NaN,NaN,NaN,NaN,NaN,NaN,NaN,NaN,NaN,NaN,,,NaN,NaN,NaN,NaN,,,NaN,NaN,NaN,NaN,NaN,,,,NaN,NaN,NaN,NaN,NaN,1,2020-11-12_18h32.43.233,Pirates_expt3,02.01.20,Win32,60,NaN,,NaN,NaN,NaN,NaN,NaN,,,NaN,NaN,NaN,NaN,NaN,space,4.627.135,1,0,1,0,1,"",,,NaN,NaN,NaN,NaN,NaN,NaN,NaN,NaN,NaN,NaN,NaN,NaN,,NaN,NaN,NaN,NaN,NaN,NaN,NaN,,NaN,,NaN,,NaN,2
NaN,NaN,NaN,NaN,NaN,"",NaN,NaN,"",NaN,,NaN,NaN,NaN,NaN,NaN,NaN,NaN,NaN,NaN,NaN,NaN,NaN,NaN,NaN,NaN,NaN,NaN,NaN,NaN,,,NaN,NaN,NaN,NaN,,,NaN,NaN,NaN,NaN,NaN,,,,NaN,NaN,NaN,NaN,NaN,1,2020-11-12_18h32.43.233,Pirates_expt3,02.01.20,Win32,60,NaN,,NaN,NaN,NaN,NaN,NaN,,,NaN,NaN,NaN,NaN,NaN,space,243.788,2,0,2,0,1,"",,,NaN,NaN,NaN,NaN,NaN,NaN,NaN,NaN,NaN,NaN,NaN,NaN,,NaN,NaN,NaN,NaN,NaN,NaN,NaN,,NaN,,NaN,,NaN,2
NaN,NaN,NaN,NaN,NaN,"",NaN,NaN,"",NaN,,NaN,NaN,NaN,NaN,NaN,NaN,NaN,NaN,NaN,NaN,NaN,NaN,NaN,NaN,NaN,NaN,NaN,NaN,NaN,,,NaN,NaN,NaN,NaN,,,NaN,NaN,NaN,NaN,NaN,,,,NaN,NaN,NaN,NaN,NaN,1,2020-11-12_18h32.43.233,Pirates_expt3,02.01.20,Win32,60,NaN,,NaN,NaN,NaN,NaN,NaN,,,NaN,NaN,NaN,NaN,NaN,space,490.882,3,0,3,0,1,"",,,NaN,NaN,NaN,NaN,NaN,NaN,NaN,NaN,NaN,NaN,NaN,NaN,,NaN,NaN,NaN,NaN,NaN,NaN,NaN,,NaN,,NaN,,NaN,2
NaN,NaN,NaN,NaN,NaN,"",NaN,NaN,"",NaN,,NaN,NaN,NaN,NaN,NaN,NaN,NaN,NaN,NaN,NaN,NaN,NaN,NaN,NaN,NaN,NaN,NaN,NaN,NaN,,,NaN,NaN,NaN,NaN,,,NaN,NaN,NaN,NaN,NaN,,,,NaN,NaN,NaN,NaN,NaN,1,2020-11-12_18h32.43.233,Pirates_expt3,02.01.20,Win32,60,NaN,,NaN,NaN,NaN,NaN,NaN,,,NaN,NaN,NaN,NaN,NaN,space,1.559.794,4,0,4,0,1,"",,,NaN,NaN,NaN,NaN,NaN,NaN,NaN,NaN,NaN,NaN,NaN,NaN,,NaN,NaN,NaN,NaN,NaN,NaN,NaN,,NaN,,NaN,,NaN,2
NaN,NaN,NaN,NaN,NaN,"",NaN,NaN,"",NaN,,NaN,NaN,NaN,NaN,NaN,NaN,NaN,NaN,NaN,NaN,NaN,NaN,NaN,NaN,NaN,NaN,NaN,NaN,NaN,,,NaN,NaN,NaN,NaN,,,NaN,NaN,NaN,NaN,NaN,,,,NaN,NaN,NaN,NaN,NaN,1,2020-11-12_18h32.43.233,Pirates_expt3,02.01.20,Win32,60,NaN,,NaN,NaN,NaN,NaN,NaN,,,NaN,NaN,NaN,NaN,NaN,space,286.996,5,0,5,0,1,"",,,NaN,NaN,NaN,NaN,NaN,NaN,NaN,NaN,NaN,NaN,NaN,NaN,,NaN,NaN,NaN,NaN,NaN,NaN,NaN,,NaN,,NaN,,NaN,2
NaN,NaN,NaN,NaN,NaN,"",NaN,NaN,"",NaN,,NaN,NaN,NaN,NaN,NaN,NaN,NaN,NaN,NaN,NaN,NaN,NaN,NaN,NaN,NaN,NaN,NaN,NaN,NaN,,,NaN,NaN,NaN,NaN,,,NaN,NaN,NaN,NaN,NaN,,,,NaN,NaN,NaN,NaN,NaN,1,2020-11-12_18h32.43.233,Pirates_expt3,02.01.20,Win32,60,NaN,,NaN,NaN,NaN,NaN,NaN,,,NaN,NaN,NaN,NaN,NaN,space,23.415.915,6,0,6,0,1,"",,,NaN,NaN,NaN,NaN,NaN,NaN,NaN,NaN,NaN,NaN,NaN,NaN,,NaN,NaN,NaN,NaN,NaN,NaN,NaN,,NaN,,NaN,,NaN,2
NaN,NaN,NaN,NaN,NaN,"",NaN,NaN,"",NaN,,NaN,NaN,NaN,NaN,NaN,NaN,NaN,NaN,NaN,NaN,NaN,NaN,NaN,NaN,NaN,NaN,NaN,NaN,NaN,,,NaN,NaN,NaN,NaN,,,NaN,NaN,NaN,NaN,NaN,,,,NaN,NaN,NaN,NaN,NaN,1,2020-11-12_18h32.43.233,Pirates_expt3,02.01.20,Win32,60,NaN,,NaN,NaN,NaN,NaN,NaN,,,NaN,NaN,NaN,NaN,NaN,space,18.773.935,7,0,7,0,1,"",,,NaN,NaN,NaN,NaN,NaN,NaN,NaN,NaN,NaN,NaN,NaN,NaN,,NaN,NaN,NaN,NaN,NaN,NaN,NaN,,NaN,,NaN,,NaN,2
NaN,NaN,NaN,NaN,NaN,"",NaN,NaN,"",NaN,,NaN,NaN,NaN,NaN,NaN,NaN,NaN,NaN,NaN,NaN,NaN,NaN,NaN,NaN,NaN,NaN,NaN,NaN,NaN,,,NaN,NaN,NaN,NaN,,,NaN,NaN,NaN,NaN,NaN,,,,NaN,NaN,NaN,NaN,NaN,1,2020-11-12_18h32.43.233,Pirates_expt3,02.01.20,Win32,60,NaN,,NaN,NaN,NaN,NaN,NaN,,,NaN,NaN,NaN,NaN,NaN,space,10.697.685,8,0,8,0,1,"",,,NaN,NaN,NaN,NaN,NaN,NaN,NaN,NaN,NaN,NaN,NaN,NaN,,NaN,NaN,NaN,NaN,NaN,NaN,NaN,,NaN,,NaN,,NaN,2
NaN,NaN,NaN,NaN,NaN,"",NaN,NaN,"",NaN,,NaN,NaN,NaN,NaN,NaN,NaN,NaN,NaN,NaN,NaN,NaN,NaN,NaN,NaN,NaN,NaN,NaN,NaN,NaN,,,NaN,NaN,NaN,NaN,,,NaN,NaN,NaN,NaN,NaN,,,,NaN,NaN,NaN,NaN,NaN,1,2020-11-12_18h32.43.233,Pirates_expt3,02.01.20,Win32,60,NaN,,NaN,NaN,NaN,NaN,NaN,,,NaN,NaN,NaN,NaN,NaN,space,4.205.335,9,0,9,0,1,"",,,NaN,NaN,NaN,NaN,NaN,NaN,NaN,NaN,NaN,NaN,NaN,NaN,,NaN,NaN,NaN,NaN,NaN,NaN,NaN,,NaN,,NaN,,NaN,2
NaN,NaN,NaN,NaN,NaN,"[100,100,100]",NaN,0.05,"[0.1,0.15,0.05]",1,01. May,1,1,0,1,72,72,77,0.1,0.15,0.05,0.1,72,77,72,0.15,0.05,0.1,1,1,f,173.549,0,0,0,1,N/A,0,0,0,0,1,199,0,,,NaN,NaN,NaN,NaN,NaN,1,2020-11-12_18h32.43.233,Pirates_expt3,02.01.20,Win32,60,NaN,,NaN,NaN,NaN,NaN,NaN,,,NaN,NaN,NaN,NaN,NaN,,,NaN,NaN,NaN,NaN,NaN,"[72,72,77]",return,1.263.549,4,0,4,0,1,3,200,0,200,0,1,199,,NaN,NaN,NaN,NaN,NaN,NaN,NaN,,NaN,,NaN,,NaN,2
NaN,NaN,NaN,NaN,NaN,"",NaN,NaN,"",NaN,,1,1,0,1,74,76,78,0.1,0.15,0.05,0.1,76,78,74,0.15,0.05,0.1,0,2,0,0,0,0,0,1,N/A,0,0,0,0,1,199,0,,,NaN,NaN,NaN,NaN,NaN,1,2020-11-12_18h32.43.233,Pirates_expt3,02.01.20,Win32,60,NaN,,NaN,NaN,NaN,NaN,NaN,,,NaN,NaN,NaN,NaN,NaN,,,NaN,NaN,NaN,NaN,NaN,"",,,4,0,4,0,1,3,200,0,200,0,1,199,f,173.549,NaN,NaN,NaN,NaN,NaN,NaN,,NaN,,NaN,,NaN,2
NaN,NaN,NaN,NaN,NaN,"",NaN,NaN,"",NaN,,1,1,0,1,74,76,78,0.1,0.15,0.05,0.1,76,78,74,0.15,0.05,0.1,2,3,0,0,74,74,0,1,space,115.656,0,0,0,1,199,0,,,NaN,NaN,NaN,NaN,NaN,1,2020-11-12_18h32.43.233,Pirates_expt3,02.01.20,Win32,60,NaN,,NaN,NaN,NaN,NaN,NaN,,,NaN,NaN,NaN,NaN,NaN,,,NaN,NaN,NaN,NaN,NaN,"",,,4,0,4,0,1,3,200,0,200,0,1,199,,NaN,200,0,200,0,1,199,,NaN,,NaN,,NaN,2
NaN,NaN,NaN,NaN,NaN,"",NaN,NaN,"",NaN,,1,1,37,1,74,79,79,0.1,0.15,0.05,0.1,79,79,74,0.15,0.05,0.1,0,4,0,0,74,74,74,2,0,0,0,37,74,2,198,0,,,NaN,NaN,NaN,NaN,NaN,1,2020-11-12_18h32.43.233,Pirates_expt3,02.01.20,Win32,60,NaN,,NaN,NaN,NaN,NaN,NaN,,,NaN,NaN,NaN,NaN,NaN,,,NaN,NaN,NaN,NaN,NaN,"",,,4,0,4,0,1,3,200,0,200,0,1,199,,NaN,200,0,200,0,1,199,space,115.656,,NaN,,NaN,2
NaN,NaN,NaN,NaN,NaN,"",NaN,NaN,"",NaN,,NaN,NaN,NaN,NaN,NaN,NaN,NaN,NaN,NaN,NaN,NaN,NaN,NaN,NaN,NaN,NaN,NaN,NaN,NaN,,,NaN,NaN,NaN,NaN,,,NaN,NaN,NaN,NaN,NaN,,,,NaN,NaN,NaN,NaN,NaN,1,2020-11-12_18h32.43.233,Pirates_expt3,02.01.20,Win32,60,NaN,,NaN,NaN,NaN,NaN,NaN,,,NaN,NaN,NaN,NaN,NaN,,,NaN,NaN,NaN,NaN,NaN,"",,,NaN,NaN,NaN,NaN,NaN,NaN,NaN,NaN,NaN,NaN,NaN,NaN,,NaN,0,0,0,0,1,NaN,,NaN,,NaN,,NaN,2
NaN,NaN,NaN,NaN,NaN,"",NaN,NaN,"",NaN,,1,1,37,1,71,79,79,0.1,0.15,0.05,0.1,79,79,71,0.15,0.05,0.1,2,3,0,0,71,71,74,2,space,0.216575,0,37,74,2,198,0,,,NaN,NaN,NaN,NaN,NaN,1,2020-11-12_18h32.43.233,Pirates_expt3,02.01.20,Win32,60,NaN,,NaN,NaN,NaN,NaN,NaN,,,NaN,NaN,NaN,NaN,NaN,,,NaN,NaN,NaN,NaN,NaN,"",,,4,0,4,0,1,3,200,0,200,0,1,199,,NaN,200,0,200,0,1,199,,NaN,,NaN,,NaN,2
NaN,NaN,NaN,NaN,NaN,"",NaN,NaN,"",NaN,,1,1,48,1,71,82,80,0.1,0.15,0.05,0.1,82,80,71,0.15,0.05,0.1,0,4,0,0,71,71,145,3,0,0,0,48,145,3,197,0,,,NaN,NaN,NaN,NaN,NaN,1,2020-11-12_18h32.43.233,Pirates_expt3,02.01.20,Win32,60,NaN,,NaN,NaN,NaN,NaN,NaN,,,NaN,NaN,NaN,NaN,NaN,,,NaN,NaN,NaN,NaN,NaN,"",,,4,0,4,0,1,3,200,0,200,0,1,199,,NaN,200,0,200,0,1,199,space,0.216575,,NaN,,NaN,2
NaN,NaN,NaN,NaN,NaN,"",NaN,NaN,"",NaN,,NaN,NaN,NaN,NaN,NaN,NaN,NaN,NaN,NaN,NaN,NaN,NaN,NaN,NaN,NaN,NaN,NaN,NaN,NaN,,,NaN,NaN,NaN,NaN,,,NaN,NaN,NaN,NaN,NaN,,,,NaN,NaN,NaN,NaN,NaN,1,2020-11-12_18h32.43.233,Pirates_expt3,02.01.20,Win32,60,NaN,,NaN,NaN,NaN,NaN,NaN,,,NaN,NaN,NaN,NaN,NaN,,,NaN,NaN,NaN,NaN,NaN,"",,,NaN,NaN,NaN,NaN,NaN,NaN,NaN,NaN,NaN,NaN,NaN,NaN,,NaN,1,0,1,0,1,NaN,,NaN,,NaN,,NaN,2
NaN,NaN,NaN,NaN,NaN,"",NaN,NaN,"",NaN,,1,1,48,1,64,82,80,0.1,0.15,0.05,0.1,82,80,64,0.15,0.05,0.1,2,3,0,0,64,64,145,3,space,0.83394,0,48,145,3,197,0,,,NaN,NaN,NaN,NaN,NaN,1,2020-11-12_18h32.43.233,Pirates_expt3,02.01.20,Win32,60,NaN,,NaN,NaN,NaN,NaN,NaN,,,NaN,NaN,NaN,NaN,NaN,,,NaN,NaN,NaN,NaN,NaN,"",,,4,0,4,0,1,3,200,0,200,0,1,199,,NaN,200,0,200,0,1,199,,NaN,,NaN,,NaN,2
NaN,NaN,NaN,NaN,NaN,"",NaN,NaN,"",NaN,,1,1,52,1,64,85,81,0.1,0.15,0.05,0.1,85,81,64,0.15,0.05,0.1,0,4,0,0,64,64,209,4,0,0,0,52,209,4,196,0,,,NaN,NaN,NaN,NaN,NaN,1,2020-11-12_18h32.43.233,Pirates_expt3,02.01.20,Win32,60,NaN,,NaN,NaN,NaN,NaN,NaN,,,NaN,NaN,NaN,NaN,NaN,,,NaN,NaN,NaN,NaN,NaN,"",,,4,0,4,0,1,3,200,0,200,0,1,199,,NaN,200,0,200,0,1,199,space,0.83394,,NaN,,NaN,2
NaN,NaN,NaN,NaN,NaN,"",NaN,NaN,"",NaN,,NaN,NaN,NaN,NaN,NaN,NaN,NaN,NaN,NaN,NaN,NaN,NaN,NaN,NaN,NaN,NaN,NaN,NaN,NaN,,,NaN,NaN,NaN,NaN,,,NaN,NaN,NaN,NaN,NaN,,,,NaN,NaN,NaN,NaN,NaN,1,2020-11-12_18h32.43.233,Pirates_expt3,02.01.20,Win32,60,NaN,,NaN,NaN,NaN,NaN,NaN,,,NaN,NaN,NaN,NaN,NaN,,,NaN,NaN,NaN,NaN,NaN,"",,,NaN,NaN,NaN,NaN,NaN,NaN,NaN,NaN,NaN,NaN,NaN,NaN,,NaN,2,0,2,0,1,NaN,,NaN,,NaN,,NaN,2
NaN,NaN,NaN,NaN,NaN,"",NaN,NaN,"",NaN,,1,1,52,1,54,85,81,0.1,0.15,0.05,0.1,85,81,54,0.15,0.05,0.1,2,3,0,0,54,54,209,4,space,0.38659,0,52,209,4,196,0,,,NaN,NaN,NaN,NaN,NaN,1,2020-11-12_18h32.43.233,Pirates_expt3,02.01.20,Win32,60,NaN,,NaN,NaN,NaN,NaN,NaN,,,NaN,NaN,NaN,NaN,NaN,,,NaN,NaN,NaN,NaN,NaN,"",,,4,0,4,0,1,3,200,0,200,0,1,199,,NaN,200,0,200,0,1,199,,NaN,,NaN,,NaN,2
NaN,NaN,NaN,NaN,NaN,"",NaN,NaN,"",NaN,,1,1,52,1,54,87,82,0.1,0.15,0.05,0.1,87,82,54,0.15,0.05,0.1,0,4,0,0,54,54,264,5,0,0,0,52,264,5,195,0,,,NaN,NaN,NaN,NaN,NaN,1,2020-11-12_18h32.43.233,Pirates_expt3,02.01.20,Win32,60,NaN,,NaN,NaN,NaN,NaN,NaN,,,NaN,NaN,NaN,NaN,NaN,,,NaN,NaN,NaN,NaN,NaN,"",,,4,0,4,0,1,3,200,0,200,0,1,199,,NaN,200,0,200,0,1,199,space,0.38659,,NaN,,NaN,2
NaN,NaN,NaN,NaN,NaN,"",NaN,NaN,"",NaN,,NaN,NaN,NaN,NaN,NaN,NaN,NaN,NaN,NaN,NaN,NaN,NaN,NaN,NaN,NaN,NaN,NaN,NaN,NaN,,,NaN,NaN,NaN,NaN,,,NaN,NaN,NaN,NaN,NaN,,,,NaN,NaN,NaN,NaN,NaN,1,2020-11-12_18h32.43.233,Pirates_expt3,02.01.20,Win32,60,NaN,,NaN,NaN,NaN,NaN,NaN,,,NaN,NaN,NaN,NaN,NaN,,,NaN,NaN,NaN,NaN,NaN,"",,,NaN,NaN,NaN,NaN,NaN,NaN,NaN,NaN,NaN,NaN,NaN,NaN,,NaN,3,0,3,0,1,NaN,,NaN,,NaN,,NaN,2
NaN,NaN,NaN,NaN,NaN,"",NaN,NaN,"",NaN,,1,1,52,1,44,87,82,0.1,0.15,0.05,0.1,87,82,44,0.15,0.05,0.1,2,3,0,0,44,44,264,5,space,0.528075,0,52,264,5,195,0,,,NaN,NaN,NaN,NaN,NaN,1,2020-11-12_18h32.43.233,Pirates_expt3,02.01.20,Win32,60,NaN,,NaN,NaN,NaN,NaN,NaN,,,NaN,NaN,NaN,NaN,NaN,,,NaN,NaN,NaN,NaN,NaN,"",,,4,0,4,0,1,3,200,0,200,0,1,199,,NaN,200,0,200,0,1,199,,NaN,,NaN,,NaN,2
NaN,NaN,NaN,NaN,NaN,"",NaN,NaN,"",NaN,,1,1,51,1,44,89,83,0.1,0.15,0.05,0.1,89,83,44,0.15,0.05,0.1,0,4,0,0,44,44,309,6,0,0,0,51,309,6,194,0,,,NaN,NaN,NaN,NaN,NaN,1,2020-11-12_18h32.43.233,Pirates_expt3,02.01.20,Win32,60,NaN,,NaN,NaN,NaN,NaN,NaN,,,NaN,NaN,NaN,NaN,NaN,,,NaN,NaN,NaN,NaN,NaN,"",,,4,0,4,0,1,3,200,0,200,0,1,199,,NaN,200,0,200,0,1,199,space,0.528075,,NaN,,NaN,2
NaN,NaN,NaN,NaN,NaN,"",NaN,NaN,"",NaN,,NaN,NaN,NaN,NaN,NaN,NaN,NaN,NaN,NaN,NaN,NaN,NaN,NaN,NaN,NaN,NaN,NaN,NaN,NaN,,,NaN,NaN,NaN,NaN,,,NaN,NaN,NaN,NaN,NaN,,,,NaN,NaN,NaN,NaN,NaN,1,2020-11-12_18h32.43.233,Pirates_expt3,02.01.20,Win32,60,NaN,,NaN,NaN,NaN,NaN,NaN,,,NaN,NaN,NaN,NaN,NaN,,,NaN,NaN,NaN,NaN,NaN,"",,,NaN,NaN,NaN,NaN,NaN,NaN,NaN,NaN,NaN,NaN,NaN,NaN,,NaN,4,0,4,0,1,NaN,,NaN,,NaN,,NaN,2
NaN,NaN,NaN,NaN,NaN,"",NaN,NaN,"",NaN,,1,1,51,1,34,89,83,0.1,0.15,0.05,0.1,89,83,34,0.15,0.05,0.1,2,3,0,0,34,34,309,6,space,0.389565,0,51,309,6,194,0,,,NaN,NaN,NaN,NaN,NaN,1,2020-11-12_18h32.43.233,Pirates_expt3,02.01.20,Win32,60,NaN,,NaN,NaN,NaN,NaN,NaN,,,NaN,NaN,NaN,NaN,NaN,,,NaN,NaN,NaN,NaN,NaN,"",,,4,0,4,0,1,3,200,0,200,0,1,199,,NaN,200,0,200,0,1,199,,NaN,,NaN,,NaN,2
NaN,NaN,NaN,NaN,NaN,"",NaN,NaN,"",NaN,,1,1,49,1,34,91,83,0.1,0.15,0.05,0.1,91,83,34,0.15,0.05,0.1,0,4,0,0,34,34,344,7,0,0,0,49,344,7,193,0,,,NaN,NaN,NaN,NaN,NaN,1,2020-11-12_18h32.43.233,Pirates_expt3,02.01.20,Win32,60,NaN,,NaN,NaN,NaN,NaN,NaN,,,NaN,NaN,NaN,NaN,NaN,,,NaN,NaN,NaN,NaN,NaN,"",,,4,0,4,0,1,3,200,0,200,0,1,199,,NaN,200,0,200,0,1,199,space,0.389565,,NaN,,NaN,2
NaN,NaN,NaN,NaN,NaN,"",NaN,NaN,"",NaN,,NaN,NaN,NaN,NaN,NaN,NaN,NaN,NaN,NaN,NaN,NaN,NaN,NaN,NaN,NaN,NaN,NaN,NaN,NaN,,,NaN,NaN,NaN,NaN,,,NaN,NaN,NaN,NaN,NaN,,,,NaN,NaN,NaN,NaN,NaN,1,2020-11-12_18h32.43.233,Pirates_expt3,02.01.20,Win32,60,NaN,,NaN,NaN,NaN,NaN,NaN,,,NaN,NaN,NaN,NaN,NaN,,,NaN,NaN,NaN,NaN,NaN,"",,,NaN,NaN,NaN,NaN,NaN,NaN,NaN,NaN,NaN,NaN,NaN,NaN,,NaN,5,0,5,0,1,NaN,,NaN,,NaN,,NaN,2
NaN,NaN,NaN,NaN,NaN,"",NaN,NaN,"",NaN,,1,1,49,1,25,91,83,0.1,0.15,0.05,0.1,91,83,25,0.15,0.05,0.1,2,3,0,0,25,25,344,7,space,0.33384,0,49,344,7,193,0,,,NaN,NaN,NaN,NaN,NaN,1,2020-11-12_18h32.43.233,Pirates_expt3,02.01.20,Win32,60,NaN,,NaN,NaN,NaN,NaN,NaN,,,NaN,NaN,NaN,NaN,NaN,,,NaN,NaN,NaN,NaN,NaN,"",,,4,0,4,0,1,3,200,0,200,0,1,199,,NaN,200,0,200,0,1,199,,NaN,,NaN,,NaN,2
NaN,NaN,NaN,NaN,NaN,"",NaN,NaN,"",NaN,,1,1,46,1,25,92,84,0.1,0.15,0.05,0.1,92,84,25,0.15,0.05,0.1,0,4,0,0,25,25,369,8,0,0,0,46,369,8,192,0,,,NaN,NaN,NaN,NaN,NaN,1,2020-11-12_18h32.43.233,Pirates_expt3,02.01.20,Win32,60,NaN,,NaN,NaN,NaN,NaN,NaN,,,NaN,NaN,NaN,NaN,NaN,,,NaN,NaN,NaN,NaN,NaN,"",,,4,0,4,0,1,3,200,0,200,0,1,199,,NaN,200,0,200,0,1,199,space,0.33384,,NaN,,NaN,2
NaN,NaN,NaN,NaN,NaN,"",NaN,NaN,"",NaN,,NaN,NaN,NaN,NaN,NaN,NaN,NaN,NaN,NaN,NaN,NaN,NaN,NaN,NaN,NaN,NaN,NaN,NaN,NaN,,,NaN,NaN,NaN,NaN,,,NaN,NaN,NaN,NaN,NaN,,,,NaN,NaN,NaN,NaN,NaN,1,2020-11-12_18h32.43.233,Pirates_expt3,02.01.20,Win32,60,NaN,,NaN,NaN,NaN,NaN,NaN,,,NaN,NaN,NaN,NaN,NaN,,,NaN,NaN,NaN,NaN,NaN,"",,,NaN,NaN,NaN,NaN,NaN,NaN,NaN,NaN,NaN,NaN,NaN,NaN,,NaN,6,0,6,0,1,NaN,,NaN,,NaN,,NaN,2
NaN,NaN,NaN,NaN,NaN,"",NaN,NaN,"",NaN,,1,1,46,1,17,92,84,0.1,0.15,0.05,0.1,92,84,17,0.15,0.05,0.1,2,3,0,0,17,17,369,8,space,0.36775,0,46,369,8,192,0,,,NaN,NaN,NaN,NaN,NaN,1,2020-11-12_18h32.43.233,Pirates_expt3,02.01.20,Win32,60,NaN,,NaN,NaN,NaN,NaN,NaN,,,NaN,NaN,NaN,NaN,NaN,,,NaN,NaN,NaN,NaN,NaN,"",,,4,0,4,0,1,3,200,0,200,0,1,199,,NaN,200,0,200,0,1,199,,NaN,,NaN,,NaN,2
NaN,NaN,NaN,NaN,NaN,"",NaN,NaN,"",NaN,,1,1,43,1,17,93,85,0.1,0.15,0.05,0.1,93,85,17,0.15,0.05,0.1,0,4,0,0,17,17,387,9,0,0,0,43,387,9,191,0,,,NaN,NaN,NaN,NaN,NaN,1,2020-11-12_18h32.43.233,Pirates_expt3,02.01.20,Win32,60,NaN,,NaN,NaN,NaN,NaN,NaN,,,NaN,NaN,NaN,NaN,NaN,,,NaN,NaN,NaN,NaN,NaN,"",,,4,0,4,0,1,3,200,0,200,0,1,199,,NaN,200,0,200,0,1,199,space,0.36775,,NaN,,NaN,2
NaN,NaN,NaN,NaN,NaN,"",NaN,NaN,"",NaN,,NaN,NaN,NaN,NaN,NaN,NaN,NaN,NaN,NaN,NaN,NaN,NaN,NaN,NaN,NaN,NaN,NaN,NaN,NaN,,,NaN,NaN,NaN,NaN,,,NaN,NaN,NaN,NaN,NaN,,,,NaN,NaN,NaN,NaN,NaN,1,2020-11-12_18h32.43.233,Pirates_expt3,02.01.20,Win32,60,NaN,,NaN,NaN,NaN,NaN,NaN,,,NaN,NaN,NaN,NaN,NaN,,,NaN,NaN,NaN,NaN,NaN,"",,,NaN,NaN,NaN,NaN,NaN,NaN,NaN,NaN,NaN,NaN,NaN,NaN,,NaN,7,0,7,0,1,NaN,,NaN,,NaN,,NaN,2
NaN,NaN,NaN,NaN,NaN,"",NaN,NaN,"",NaN,,1,1,43,1,11,93,85,0.1,0.15,0.05,0.1,93,85,11,0.15,0.05,0.1,3,3,0,0,11,11,387,9,s,0.528565,8,43,387,9,191,0,,,NaN,NaN,NaN,NaN,NaN,1,2020-11-12_18h32.43.233,Pirates_expt3,02.01.20,Win32,60,NaN,,NaN,NaN,NaN,NaN,NaN,,,NaN,NaN,NaN,NaN,NaN,,,NaN,NaN,NaN,NaN,NaN,"",,,4,0,4,0,1,3,200,0,200,0,1,199,,NaN,200,0,200,0,1,199,,NaN,,NaN,,NaN,2
NaN,NaN,NaN,NaN,NaN,"",NaN,NaN,"",NaN,,1,1,38,1,20,94,86,0.1,0.15,0.05,0.1,94,86,20,0.15,0.05,0.1,0,4,0,0,20,11,387,10,0,0,0,38,387,10,190,16.979,,,NaN,NaN,NaN,NaN,NaN,1,2020-11-12_18h32.43.233,Pirates_expt3,02.01.20,Win32,60,NaN,,NaN,NaN,NaN,NaN,NaN,,,NaN,NaN,NaN,NaN,NaN,,,NaN,NaN,NaN,NaN,NaN,"",,,4,0,4,0,1,3,200,0,200,0,1,199,,NaN,200,0,200,0,1,199,s,0.528565,,NaN,,NaN,2
NaN,NaN,NaN,NaN,NaN,"",NaN,NaN,"",NaN,,NaN,NaN,NaN,NaN,NaN,NaN,NaN,NaN,NaN,NaN,NaN,NaN,NaN,NaN,NaN,NaN,NaN,NaN,NaN,,,NaN,NaN,NaN,NaN,,,NaN,NaN,NaN,NaN,NaN,,,,NaN,NaN,NaN,NaN,NaN,1,2020-11-12_18h32.43.233,Pirates_expt3,02.01.20,Win32,60,NaN,,NaN,NaN,NaN,NaN,NaN,,,NaN,NaN,NaN,NaN,NaN,,,NaN,NaN,NaN,NaN,NaN,"",,,NaN,NaN,NaN,NaN,NaN,NaN,0,0,0,0,1,NaN,,NaN,NaN,NaN,NaN,NaN,NaN,NaN,,NaN,,NaN,,NaN,2
NaN,NaN,NaN,NaN,NaN,"",NaN,NaN,"",NaN,,1,1,38,2,20,94,86,0.1,0.15,0.05,0.15,94,86,20,0.15,0.05,0.1,1,1,j,1.555.995,0,0,387,11,N/A,0,0,38,387,11,189,0,,,NaN,NaN,NaN,NaN,NaN,1,2020-11-12_18h32.43.233,Pirates_expt3,02.01.20,Win32,60,NaN,,NaN,NaN,NaN,NaN,NaN,,,NaN,NaN,NaN,NaN,NaN,,,NaN,NaN,NaN,NaN,NaN,"",,,4,0,4,0,1,3,200,0,200,0,1,199,,NaN,NaN,NaN,NaN,NaN,NaN,NaN,,NaN,,NaN,,NaN,2
NaN,NaN,NaN,NaN,NaN,"",NaN,NaN,"",NaN,,1,1,38,2,28,95,86,0.1,0.15,0.05,0.15,95,86,28,0.15,0.05,0.1,0,2,0,0,0,0,387,11,N/A,0,0,38,387,11,189,0,,,NaN,NaN,NaN,NaN,NaN,1,2020-11-12_18h32.43.233,Pirates_expt3,02.01.20,Win32,60,NaN,,NaN,NaN,NaN,NaN,NaN,,,NaN,NaN,NaN,NaN,NaN,,,NaN,NaN,NaN,NaN,NaN,"",,,4,0,4,0,1,3,200,0,200,0,1,199,j,1.555,0.995,NaN,NaN,NaN,NaN,NaN,,NaN,,NaN,,NaN,2
NaN,NaN,NaN,NaN,NaN,"",NaN,NaN,"",NaN,,1,1,35,2,28,95,86,0.1,0.15,0.05,0.15,95,86,28,0.15,0.05,0.1,2,3,0,0,95,95,387,11,space,1.208.815,0,35,387,11,189,0,,,NaN,NaN,NaN,NaN,NaN,1,2020-11-12_18h32.43.233,Pirates_expt3,02.01.20,Win32,60,NaN,,NaN,NaN,NaN,NaN,NaN,,,NaN,NaN,NaN,NaN,NaN,,,NaN,NaN,NaN,NaN,NaN,"",,,4,0,4,0,1,3,200,0,200,0,1,199,,NaN,200,0,200,0,1,199,,NaN,,NaN,,NaN,2
NaN,NaN,NaN,NaN,NaN,"",NaN,NaN,"",NaN,,1,1,40,2,35,95,87,0.1,0.15,0.05,0.15,95,87,35,0.15,0.05,0.1,0,4,0,0,95,95,482,12,0,0,0,40,482,12,188,0,,,NaN,NaN,NaN,NaN,NaN,1,2020-11-12_18h32.43.233,Pirates_expt3,02.01.20,Win32,60,NaN,,NaN,NaN,NaN,NaN,NaN,,,NaN,NaN,NaN,NaN,NaN,,,NaN,NaN,NaN,NaN,NaN,"",,,4,0,4,0,1,3,200,0,200,0,1,199,,NaN,200,0,200,0,1,199,space,1.208,.815,NaN,,NaN,2
NaN,NaN,NaN,NaN,NaN,"",NaN,NaN,"",NaN,,NaN,NaN,NaN,NaN,NaN,NaN,NaN,NaN,NaN,NaN,NaN,NaN,NaN,NaN,NaN,NaN,NaN,NaN,NaN,,,NaN,NaN,NaN,NaN,,,NaN,NaN,NaN,NaN,NaN,,,,NaN,NaN,NaN,NaN,NaN,1,2020-11-12_18h32.43.233,Pirates_expt3,02.01.20,Win32,60,NaN,,NaN,NaN,NaN,NaN,NaN,,,NaN,NaN,NaN,NaN,NaN,,,NaN,NaN,NaN,NaN,NaN,"",,,NaN,NaN,NaN,NaN,NaN,NaN,NaN,NaN,NaN,NaN,NaN,NaN,,NaN,0,0,0,0,1,NaN,,NaN,,NaN,,NaN,2
NaN,NaN,NaN,NaN,NaN,"",NaN,NaN,"",NaN,,1,1,40,2,35,90,87,0.1,0.15,0.05,0.15,90,87,35,0.15,0.05,0.1,2,3,0,0,90,90,482,12,space,0.461365,0,40,482,12,188,0,,,NaN,NaN,NaN,NaN,NaN,1,2020-11-12_18h32.43.233,Pirates_expt3,02.01.20,Win32,60,NaN,,NaN,NaN,NaN,NaN,NaN,,,NaN,NaN,NaN,NaN,NaN,,,NaN,NaN,NaN,NaN,NaN,"",,,4,0,4,0,1,3,200,0,200,0,1,199,,NaN,200,0,200,0,1,199,,NaN,,NaN,,NaN,2
NaN,NaN,NaN,NaN,NaN,"",NaN,NaN,"",NaN,,1,1,44,2,42,90,88,0.1,0.15,0.05,0.15,90,88,42,0.15,0.05,0.1,0,4,0,0,90,90,573,13,0,0,0,44,573,13,187,0,,,NaN,NaN,NaN,NaN,NaN,1,2020-11-12_18h32.43.233,Pirates_expt3,02.01.20,Win32,60,NaN,,NaN,NaN,NaN,NaN,NaN,,,NaN,NaN,NaN,NaN,NaN,,,NaN,NaN,NaN,NaN,NaN,"",,,4,0,4,0,1,3,200,0,200,0,1,199,,NaN,200,0,200,0,1,199,space,0.461365,,NaN,,NaN,2
NaN,NaN,NaN,NaN,NaN,"",NaN,NaN,"",NaN,,NaN,NaN,NaN,NaN,NaN,NaN,NaN,NaN,NaN,NaN,NaN,NaN,NaN,NaN,NaN,NaN,NaN,NaN,NaN,,,NaN,NaN,NaN,NaN,,,NaN,NaN,NaN,NaN,NaN,,,,NaN,NaN,NaN,NaN,NaN,1,2020-11-12_18h32.43.233,Pirates_expt3,02.01.20,Win32,60,NaN,,NaN,NaN,NaN,NaN,NaN,,,NaN,NaN,NaN,NaN,NaN,,,NaN,NaN,NaN,NaN,NaN,"",,,NaN,NaN,NaN,NaN,NaN,NaN,NaN,NaN,NaN,NaN,NaN,NaN,,NaN,1,0,1,0,1,NaN,,NaN,,NaN,,NaN,2
NaN,NaN,NaN,NaN,NaN,"",NaN,NaN,"",NaN,,1,1,44,2,42,81,88,0.1,0.15,0.05,0.15,81,88,42,0.15,0.05,0.1,2,3,0,0,81,81,573,13,space,0.362405,0,44,573,13,187,0,,,NaN,NaN,NaN,NaN,NaN,1,2020-11-12_18h32.43.233,Pirates_expt3,02.01.20,Win32,60,NaN,,NaN,NaN,NaN,NaN,NaN,,,NaN,NaN,NaN,NaN,NaN,,,NaN,NaN,NaN,NaN,NaN,"",,,4,0,4,0,1,3,200,0,200,0,1,199,,NaN,200,0,200,0,1,199,,NaN,,NaN,,NaN,2
NaN,NaN,NaN,NaN,NaN,"",NaN,NaN,"",NaN,,1,1,46,2,47,81,88,0.1,0.15,0.05,0.15,81,88,47,0.15,0.05,0.1,0,4,0,0,81,81,655,14,0,0,0,46,655,14,186,0,,,NaN,NaN,NaN,NaN,NaN,1,2020-11-12_18h32.43.233,Pirates_expt3,02.01.20,Win32,60,NaN,,NaN,NaN,NaN,NaN,NaN,,,NaN,NaN,NaN,NaN,NaN,,,NaN,NaN,NaN,NaN,NaN,"",,,4,0,4,0,1,3,200,0,200,0,1,199,,NaN,200,0,200,0,1,199,space,0.362405,,NaN,,NaN,2
NaN,NaN,NaN,NaN,NaN,"",NaN,NaN,"",NaN,,NaN,NaN,NaN,NaN,NaN,NaN,NaN,NaN,NaN,NaN,NaN,NaN,NaN,NaN,NaN,NaN,NaN,NaN,NaN,,,NaN,NaN,NaN,NaN,,,NaN,NaN,NaN,NaN,NaN,,,,NaN,NaN,NaN,NaN,NaN,1,2020-11-12_18h32.43.233,Pirates_expt3,02.01.20,Win32,60,NaN,,NaN,NaN,NaN,NaN,NaN,,,NaN,NaN,NaN,NaN,NaN,,,NaN,NaN,NaN,NaN,NaN,"",,,NaN,NaN,NaN,NaN,NaN,NaN,NaN,NaN,NaN,NaN,NaN,NaN,,NaN,2,0,2,0,1,NaN,,NaN,,NaN,,NaN,2
NaN,NaN,NaN,NaN,NaN,"",NaN,NaN,"",NaN,,1,1,46,2,47,70,88,0.1,0.15,0.05,0.15,70,88,47,0.15,0.05,0.1,2,3,0,0,70,70,655,14,space,0.350115,0,46,655,14,186,0,,,NaN,NaN,NaN,NaN,NaN,1,2020-11-12_18h32.43.233,Pirates_expt3,02.01.20,Win32,60,NaN,,NaN,NaN,NaN,NaN,NaN,,,NaN,NaN,NaN,NaN,NaN,,,NaN,NaN,NaN,NaN,NaN,"",,,4,0,4,0,1,3,200,0,200,0,1,199,,NaN,200,0,200,0,1,199,,NaN,,NaN,,NaN,2
NaN,NaN,NaN,NaN,NaN,"",NaN,NaN,"",NaN,,1,1,48,2,53,70,89,0.1,0.15,0.05,0.15,70,89,53,0.15,0.05,0.1,0,4,0,0,70,70,725,15,0,0,0,48,725,15,185,0,,,NaN,NaN,NaN,NaN,NaN,1,2020-11-12_18h32.43.233,Pirates_expt3,02.01.20,Win32,60,NaN,,NaN,NaN,NaN,NaN,NaN,,,NaN,NaN,NaN,NaN,NaN,,,NaN,NaN,NaN,NaN,NaN,"",,,4,0,4,0,1,3,200,0,200,0,1,199,,NaN,200,0,200,0,1,199,space,0.350115,,NaN,,NaN,2
NaN,NaN,NaN,NaN,NaN,"",NaN,NaN,"",NaN,,NaN,NaN,NaN,NaN,NaN,NaN,NaN,NaN,NaN,NaN,NaN,NaN,NaN,NaN,NaN,NaN,NaN,NaN,NaN,,,NaN,NaN,NaN,NaN,,,NaN,NaN,NaN,NaN,NaN,,,,NaN,NaN,NaN,NaN,NaN,1,2020-11-12_18h32.43.233,Pirates_expt3,02.01.20,Win32,60,NaN,,NaN,NaN,NaN,NaN,NaN,,,NaN,NaN,NaN,NaN,NaN,,,NaN,NaN,NaN,NaN,NaN,"",,,NaN,NaN,NaN,NaN,NaN,NaN,NaN,NaN,NaN,NaN,NaN,NaN,,NaN,3,0,3,0,1,NaN,,NaN,,NaN,,NaN,2
NaN,NaN,NaN,NaN,NaN,"",NaN,NaN,"",NaN,,1,1,48,2,53,57,89,0.1,0.15,0.05,0.15,57,89,53,0.15,0.05,0.1,2,3,0,0,57,57,725,15,space,0.24992,0,48,725,15,185,0,,,NaN,NaN,NaN,NaN,NaN,1,2020-11-12_18h32.43.233,Pirates_expt3,02.01.20,Win32,60,NaN,,NaN,NaN,NaN,NaN,NaN,,,NaN,NaN,NaN,NaN,NaN,,,NaN,NaN,NaN,NaN,NaN,"",,,4,0,4,0,1,3,200,0,200,0,1,199,,NaN,200,0,200,0,1,199,,NaN,,NaN,,NaN,2
NaN,NaN,NaN,NaN,NaN,"",NaN,NaN,"",NaN,,1,1,48,2,57,57,89,0.1,0.15,0.05,0.15,57,89,57,0.15,0.05,0.1,0,4,0,0,57,57,782,16,0,0,0,48,782,16,184,0,,,NaN,NaN,NaN,NaN,NaN,1,2020-11-12_18h32.43.233,Pirates_expt3,02.01.20,Win32,60,NaN,,NaN,NaN,NaN,NaN,NaN,,,NaN,NaN,NaN,NaN,NaN,,,NaN,NaN,NaN,NaN,NaN,"",,,4,0,4,0,1,3,200,0,200,0,1,199,,NaN,200,0,200,0,1,199,space,0.24992,,NaN,,NaN,2
NaN,NaN,NaN,NaN,NaN,"",NaN,NaN,"",NaN,,NaN,NaN,NaN,NaN,NaN,NaN,NaN,NaN,NaN,NaN,NaN,NaN,NaN,NaN,NaN,NaN,NaN,NaN,NaN,,,NaN,NaN,NaN,NaN,,,NaN,NaN,NaN,NaN,NaN,,,,NaN,NaN,NaN,NaN,NaN,1,2020-11-12_18h32.43.233,Pirates_expt3,02.01.20,Win32,60,NaN,,NaN,NaN,NaN,NaN,NaN,,,NaN,NaN,NaN,NaN,NaN,,,NaN,NaN,NaN,NaN,NaN,"",,,NaN,NaN,NaN,NaN,NaN,NaN,NaN,NaN,NaN,NaN,NaN,NaN,,NaN,4,0,4,0,1,NaN,,NaN,,NaN,,NaN,2
NaN,NaN,NaN,NaN,NaN,"",NaN,NaN,"",NaN,,1,1,48,2,57,44,89,0.1,0.15,0.05,0.15,44,89,57,0.15,0.05,0.1,2,3,0,0,44,44,782,16,space,0.582505,0,48,782,16,184,0,,,NaN,NaN,NaN,NaN,NaN,1,2020-11-12_18h32.43.233,Pirates_expt3,02.01.20,Win32,60,NaN,,NaN,NaN,NaN,NaN,NaN,,,NaN,NaN,NaN,NaN,NaN,,,NaN,NaN,NaN,NaN,NaN,"",,,4,0,4,0,1,3,200,0,200,0,1,199,,NaN,200,0,200,0,1,199,,NaN,,NaN,,NaN,2
NaN,NaN,NaN,NaN,NaN,"",NaN,NaN,"",NaN,,1,1,48,2,62,44,90,0.1,0.15,0.05,0.15,44,90,62,0.15,0.05,0.1,0,4,0,0,44,44,826,17,0,0,0,48,826,17,183,0,,,NaN,NaN,NaN,NaN,NaN,1,2020-11-12_18h32.43.233,Pirates_expt3,02.01.20,Win32,60,NaN,,NaN,NaN,NaN,NaN,NaN,,,NaN,NaN,NaN,NaN,NaN,,,NaN,NaN,NaN,NaN,NaN,"",,,4,0,4,0,1,3,200,0,200,0,1,199,,NaN,200,0,200,0,1,199,space,0.582505,,NaN,,NaN,2
NaN,NaN,NaN,NaN,NaN,"",NaN,NaN,"",NaN,,NaN,NaN,NaN,NaN,NaN,NaN,NaN,NaN,NaN,NaN,NaN,NaN,NaN,NaN,NaN,NaN,NaN,NaN,NaN,,,NaN,NaN,NaN,NaN,,,NaN,NaN,NaN,NaN,NaN,,,,NaN,NaN,NaN,NaN,NaN,1,2020-11-12_18h32.43.233,Pirates_expt3,02.01.20,Win32,60,NaN,,NaN,NaN,NaN,NaN,NaN,,,NaN,NaN,NaN,NaN,NaN,,,NaN,NaN,NaN,NaN,NaN,"",,,NaN,NaN,NaN,NaN,NaN,NaN,NaN,NaN,NaN,NaN,NaN,NaN,,NaN,5,0,5,0,1,NaN,,NaN,,NaN,,NaN,2
NaN,NaN,NaN,NaN,NaN,"",NaN,NaN,"",NaN,,1,1,48,2,62,32,90,0.1,0.15,0.05,0.15,32,90,62,0.15,0.05,0.1,2,3,0,0,32,32,826,17,space,0.3458,0,48,826,17,183,0,,,NaN,NaN,NaN,NaN,NaN,1,2020-11-12_18h32.43.233,Pirates_expt3,02.01.20,Win32,60,NaN,,NaN,NaN,NaN,NaN,NaN,,,NaN,NaN,NaN,NaN,NaN,,,NaN,NaN,NaN,NaN,NaN,"",,,4,0,4,0,1,3,200,0,200,0,1,199,,NaN,200,0,200,0,1,199,,NaN,,NaN,,NaN,2
NaN,NaN,NaN,NaN,NaN,"",NaN,NaN,"",NaN,,1,1,47,2,65,32,90,0.1,0.15,0.05,0.15,32,90,65,0.15,0.05,0.1,0,4,0,0,32,32,859,18,0,0,0,47,859,18,182,0,,,NaN,NaN,NaN,NaN,NaN,1,2020-11-12_18h32.43.233,Pirates_expt3,02.01.20,Win32,60,NaN,,NaN,NaN,NaN,NaN,NaN,,,NaN,NaN,NaN,NaN,NaN,,,NaN,NaN,NaN,NaN,NaN,"",,,4,0,4,0,1,3,200,0,200,0,1,199,,NaN,200,0,200,0,1,199,space,0.3458,,NaN,,NaN,2
NaN,NaN,NaN,NaN,NaN,"",NaN,NaN,"",NaN,,NaN,NaN,NaN,NaN,NaN,NaN,NaN,NaN,NaN,NaN,NaN,NaN,NaN,NaN,NaN,NaN,NaN,NaN,NaN,,,NaN,NaN,NaN,NaN,,,NaN,NaN,NaN,NaN,NaN,,,,NaN,NaN,NaN,NaN,NaN,1,2020-11-12_18h32.43.233,Pirates_expt3,02.01.20,Win32,60,NaN,,NaN,NaN,NaN,NaN,NaN,,,NaN,NaN,NaN,NaN,NaN,,,NaN,NaN,NaN,NaN,NaN,"",,,NaN,NaN,NaN,NaN,NaN,NaN,NaN,NaN,NaN,NaN,NaN,NaN,,NaN,6,0,6,0,1,NaN,,NaN,,NaN,,NaN,2
NaN,NaN,NaN,NaN,NaN,"",NaN,NaN,"",NaN,,1,1,47,2,65,22,90,0.1,0.15,0.05,0.15,22,90,65,0.15,0.05,0.1,2,3,0,0,22,22,859,18,space,0.328125,0,47,859,18,182,0,,,NaN,NaN,NaN,NaN,NaN,1,2020-11-12_18h32.43.233,Pirates_expt3,02.01.20,Win32,60,NaN,,NaN,NaN,NaN,NaN,NaN,,,NaN,NaN,NaN,NaN,NaN,,,NaN,NaN,NaN,NaN,NaN,"",,,4,0,4,0,1,3,200,0,200,0,1,199,,NaN,200,0,200,0,1,199,,NaN,,NaN,,NaN,2
NaN,NaN,NaN,NaN,NaN,"",NaN,NaN,"",NaN,,1,1,46,2,69,22,91,0.1,0.15,0.05,0.15,22,91,69,0.15,0.05,0.1,0,4,0,0,22,22,881,19,0,0,0,46,881,19,181,0,,,NaN,NaN,NaN,NaN,NaN,1,2020-11-12_18h32.43.233,Pirates_expt3,02.01.20,Win32,60,NaN,,NaN,NaN,NaN,NaN,NaN,,,NaN,NaN,NaN,NaN,NaN,,,NaN,NaN,NaN,NaN,NaN,"",,,4,0,4,0,1,3,200,0,200,0,1,199,,NaN,200,0,200,0,1,199,space,0.328125,,NaN,,NaN,2
NaN,NaN,NaN,NaN,NaN,"",NaN,NaN,"",NaN,,NaN,NaN,NaN,NaN,NaN,NaN,NaN,NaN,NaN,NaN,NaN,NaN,NaN,NaN,NaN,NaN,NaN,NaN,NaN,,,NaN,NaN,NaN,NaN,,,NaN,NaN,NaN,NaN,NaN,,,,NaN,NaN,NaN,NaN,NaN,1,2020-11-12_18h32.43.233,Pirates_expt3,02.01.20,Win32,60,NaN,,NaN,NaN,NaN,NaN,NaN,,,NaN,NaN,NaN,NaN,NaN,,,NaN,NaN,NaN,NaN,NaN,"",,,NaN,NaN,NaN,NaN,NaN,NaN,NaN,NaN,NaN,NaN,NaN,NaN,,NaN,7,0,7,0,1,NaN,,NaN,,NaN,,NaN,2
NaN,NaN,NaN,NaN,NaN,"",NaN,NaN,"",NaN,,1,1,46,2,69,15,91,0.1,0.15,0.05,0.15,15,91,69,0.15,0.05,0.1,3,3,0,0,15,15,881,19,s,0.04232,8,46,881,19,181,0,,,NaN,NaN,NaN,NaN,NaN,1,2020-11-12_18h32.43.233,Pirates_expt3,02.01.20,Win32,60,NaN,,NaN,NaN,NaN,NaN,NaN,,,NaN,NaN,NaN,NaN,NaN,,,NaN,NaN,NaN,NaN,NaN,"",,,4,0,4,0,1,3,200,0,200,0,1,199,,NaN,200,0,200,0,1,199,,NaN,,NaN,,NaN,2
NaN,NaN,NaN,NaN,NaN,"",NaN,NaN,"",NaN,,1,1,44,2,72,27,91,0.1,0.15,0.05,0.15,27,91,72,0.15,0.05,0.1,0,4,0,0,27,15,881,20,0,0,0,44,881,20,180,16.181,,,NaN,NaN,NaN,NaN,NaN,1,2020-11-12_18h32.43.233,Pirates_expt3,02.01.20,Win32,60,NaN,,NaN,NaN,NaN,NaN,NaN,,,NaN,NaN,NaN,NaN,NaN,,,NaN,NaN,NaN,NaN,NaN,"",,,4,0,4,0,1,3,200,0,200,0,1,199,,NaN,200,0,200,0,1,199,s,0.04232,,NaN,,NaN,2
NaN,NaN,NaN,NaN,NaN,"",NaN,NaN,"",NaN,,NaN,NaN,NaN,NaN,NaN,NaN,NaN,NaN,NaN,NaN,NaN,NaN,NaN,NaN,NaN,NaN,NaN,NaN,NaN,,,NaN,NaN,NaN,NaN,,,NaN,NaN,NaN,NaN,NaN,,,,NaN,NaN,NaN,NaN,NaN,1,2020-11-12_18h32.43.233,Pirates_expt3,02.01.20,Win32,60,NaN,,NaN,NaN,NaN,NaN,NaN,,,NaN,NaN,NaN,NaN,NaN,,,NaN,NaN,NaN,NaN,NaN,"",,,NaN,NaN,NaN,NaN,NaN,NaN,1,0,1,0,1,NaN,,NaN,NaN,NaN,NaN,NaN,NaN,NaN,,NaN,,NaN,,NaN,2
NaN,NaN,NaN,NaN,NaN,"",NaN,NaN,"",NaN,,1,1,44,1,72,27,91,0.1,0.15,0.05,0.1,27,91,72,0.15,0.05,0.1,1,1,f,0.95509,0,0,881,21,N/A,0,0,44,881,21,179,0,,,NaN,NaN,NaN,NaN,NaN,1,2020-11-12_18h32.43.233,Pirates_expt3,02.01.20,Win32,60,NaN,,NaN,NaN,NaN,NaN,NaN,,,NaN,NaN,NaN,NaN,NaN,,,NaN,NaN,NaN,NaN,NaN,"",,,4,0,4,0,1,3,200,0,200,0,1,199,,NaN,NaN,NaN,NaN,NaN,NaN,NaN,,NaN,,NaN,,NaN,2
NaN,NaN,NaN,NaN,NaN,"",NaN,NaN,"",NaN,,1,1,44,1,75,38,92,0.1,0.15,0.05,0.1,38,92,75,0.15,0.05,0.1,0,2,0,0,0,0,881,21,N/A,0,0,44,881,21,179,0,,,NaN,NaN,NaN,NaN,NaN,1,2020-11-12_18h32.43.233,Pirates_expt3,02.01.20,Win32,60,NaN,,NaN,NaN,NaN,NaN,NaN,,,NaN,NaN,NaN,NaN,NaN,,,NaN,NaN,NaN,NaN,NaN,"",,,4,0,4,0,1,3,200,0,200,0,1,199,f,0.95509,NaN,NaN,NaN,NaN,NaN,NaN,,NaN,,NaN,,NaN,2
NaN,NaN,NaN,NaN,NaN,"",NaN,NaN,"",NaN,,1,1,41,1,75,38,92,0.1,0.15,0.05,0.1,38,92,75,0.15,0.05,0.1,2,3,0,0,75,75,881,21,space,0.40687,0,41,881,21,179,0,,,NaN,NaN,NaN,NaN,NaN,1,2020-11-12_18h32.43.233,Pirates_expt3,02.01.20,Win32,60,NaN,,NaN,NaN,NaN,NaN,NaN,,,NaN,NaN,NaN,NaN,NaN,,,NaN,NaN,NaN,NaN,NaN,"",,,4,0,4,0,1,3,200,0,200,0,1,199,,NaN,200,0,200,0,1,199,,NaN,,NaN,,NaN,2
NaN,NaN,NaN,NaN,NaN,"",NaN,NaN,"",NaN,,1,1,43,1,75,47,92,0.1,0.15,0.05,0.1,47,92,75,0.15,0.05,0.1,0,4,0,0,75,75,956,22,0,0,0,43,956,22,178,0,,,NaN,NaN,NaN,NaN,NaN,1,2020-11-12_18h32.43.233,Pirates_expt3,02.01.20,Win32,60,NaN,,NaN,NaN,NaN,NaN,NaN,,,NaN,NaN,NaN,NaN,NaN,,,NaN,NaN,NaN,NaN,NaN,"",,,4,0,4,0,1,3,200,0,200,0,1,199,,NaN,200,0,200,0,1,199,space,0.40687,,NaN,,NaN,2
NaN,NaN,NaN,NaN,NaN,"",NaN,NaN,"",NaN,,NaN,NaN,NaN,NaN,NaN,NaN,NaN,NaN,NaN,NaN,NaN,NaN,NaN,NaN,NaN,NaN,NaN,NaN,NaN,,,NaN,NaN,NaN,NaN,,,NaN,NaN,NaN,NaN,NaN,,,,NaN,NaN,NaN,NaN,NaN,1,2020-11-12_18h32.43.233,Pirates_expt3,02.01.20,Win32,60,NaN,,NaN,NaN,NaN,NaN,NaN,,,NaN,NaN,NaN,NaN,NaN,,,NaN,NaN,NaN,NaN,NaN,"",,,NaN,NaN,NaN,NaN,NaN,NaN,NaN,NaN,NaN,NaN,NaN,NaN,,NaN,0,0,0,0,1,NaN,,NaN,,NaN,,NaN,2
NaN,NaN,NaN,NaN,NaN,"",NaN,NaN,"",NaN,,1,1,43,1,71,47,92,0.1,0.15,0.05,0.1,47,92,71,0.15,0.05,0.1,2,3,0,0,71,71,956,22,space,0.111265,0,43,956,22,178,0,,,NaN,NaN,NaN,NaN,NaN,1,2020-11-12_18h32.43.233,Pirates_expt3,02.01.20,Win32,60,NaN,,NaN,NaN,NaN,NaN,NaN,,,NaN,NaN,NaN,NaN,NaN,,,NaN,NaN,NaN,NaN,NaN,"",,,4,0,4,0,1,3,200,0,200,0,1,199,,NaN,200,0,200,0,1,199,,NaN,,NaN,,NaN,2
NaN,NaN,NaN,NaN,NaN,"",NaN,NaN,"",NaN,,1,1,44,1,71,55,92,0.1,0.15,0.05,0.1,55,92,71,0.15,0.05,0.1,0,4,0,0,71,71,1028,23,0,0,0,44,1028,23,177,0,,,NaN,NaN,NaN,NaN,NaN,1,2020-11-12_18h32.43.233,Pirates_expt3,02.01.20,Win32,60,NaN,,NaN,NaN,NaN,NaN,NaN,,,NaN,NaN,NaN,NaN,NaN,,,NaN,NaN,NaN,NaN,NaN,"",,,4,0,4,0,1,3,200,0,200,0,1,199,,NaN,200,0,200,0,1,199,space,0.111265,,NaN,,NaN,2
NaN,NaN,NaN,NaN,NaN,"",NaN,NaN,"",NaN,,NaN,NaN,NaN,NaN,NaN,NaN,NaN,NaN,NaN,NaN,NaN,NaN,NaN,NaN,NaN,NaN,NaN,NaN,NaN,,,NaN,NaN,NaN,NaN,,,NaN,NaN,NaN,NaN,NaN,,,,NaN,NaN,NaN,NaN,NaN,1,2020-11-12_18h32.43.233,Pirates_expt3,02.01.20,Win32,60,NaN,,NaN,NaN,NaN,NaN,NaN,,,NaN,NaN,NaN,NaN,NaN,,,NaN,NaN,NaN,NaN,NaN,"",,,NaN,NaN,NaN,NaN,NaN,NaN,NaN,NaN,NaN,NaN,NaN,NaN,,NaN,1,0,1,0,1,NaN,,NaN,,NaN,,NaN,2
NaN,NaN,NaN,NaN,NaN,"",NaN,NaN,"",NaN,,1,1,44,1,64,55,92,0.1,0.15,0.05,0.1,55,92,64,0.15,0.05,0.1,2,3,0,0,64,64,1028,23,space,0.55401,0,44,1028,23,177,0,,,NaN,NaN,NaN,NaN,NaN,1,2020-11-12_18h32.43.233,Pirates_expt3,02.01.20,Win32,60,NaN,,NaN,NaN,NaN,NaN,NaN,,,NaN,NaN,NaN,NaN,NaN,,,NaN,NaN,NaN,NaN,NaN,"",,,4,0,4,0,1,3,200,0,200,0,1,199,,NaN,200,0,200,0,1,199,,NaN,,NaN,,NaN,2
NaN,NaN,NaN,NaN,NaN,"",NaN,NaN,"",NaN,,1,1,45,1,64,62,93,0.1,0.15,0.05,0.1,62,93,64,0.15,0.05,0.1,0,4,0,0,64,64,1092,24,0,0,0,45,1092,24,176,0,,,NaN,NaN,NaN,NaN,NaN,1,2020-11-12_18h32.43.233,Pirates_expt3,02.01.20,Win32,60,NaN,,NaN,NaN,NaN,NaN,NaN,,,NaN,NaN,NaN,NaN,NaN,,,NaN,NaN,NaN,NaN,NaN,"",,,4,0,4,0,1,3,200,0,200,0,1,199,,NaN,200,0,200,0,1,199,space,0.55401,,NaN,,NaN,2
NaN,NaN,NaN,NaN,NaN,"",NaN,NaN,"",NaN,,NaN,NaN,NaN,NaN,NaN,NaN,NaN,NaN,NaN,NaN,NaN,NaN,NaN,NaN,NaN,NaN,NaN,NaN,NaN,,,NaN,NaN,NaN,NaN,,,NaN,NaN,NaN,NaN,NaN,,,,NaN,NaN,NaN,NaN,NaN,1,2020-11-12_18h32.43.233,Pirates_expt3,02.01.20,Win32,60,NaN,,NaN,NaN,NaN,NaN,NaN,,,NaN,NaN,NaN,NaN,NaN,,,NaN,NaN,NaN,NaN,NaN,"",,,NaN,NaN,NaN,NaN,NaN,NaN,NaN,NaN,NaN,NaN,NaN,NaN,,NaN,2,0,2,0,1,NaN,,NaN,,NaN,,NaN,2
NaN,NaN,NaN,NaN,NaN,"",NaN,NaN,"",NaN,,1,1,45,1,55,62,93,0.1,0.15,0.05,0.1,62,93,55,0.15,0.05,0.1,2,3,0,0,55,55,1092,24,space,0.32302,0,45,1092,24,176,0,,,NaN,NaN,NaN,NaN,NaN,1,2020-11-12_18h32.43.233,Pirates_expt3,02.01.20,Win32,60,NaN,,NaN,NaN,NaN,NaN,NaN,,,NaN,NaN,NaN,NaN,NaN,,,NaN,NaN,NaN,NaN,NaN,"",,,4,0,4,0,1,3,200,0,200,0,1,199,,NaN,200,0,200,0,1,199,,NaN,,NaN,,NaN,2
NaN,NaN,NaN,NaN,NaN,"",NaN,NaN,"",NaN,,1,1,45,1,55,67,93,0.1,0.15,0.05,0.1,67,93,55,0.15,0.05,0.1,0,4,0,0,55,55,1147,25,0,0,0,45,1147,25,175,0,,,NaN,NaN,NaN,NaN,NaN,1,2020-11-12_18h32.43.233,Pirates_expt3,02.01.20,Win32,60,NaN,,NaN,NaN,NaN,NaN,NaN,,,NaN,NaN,NaN,NaN,NaN,,,NaN,NaN,NaN,NaN,NaN,"",,,4,0,4,0,1,3,200,0,200,0,1,199,,NaN,200,0,200,0,1,199,space,0.32302,,NaN,,NaN,2
NaN,NaN,NaN,NaN,NaN,"",NaN,NaN,"",NaN,,NaN,NaN,NaN,NaN,NaN,NaN,NaN,NaN,NaN,NaN,NaN,NaN,NaN,NaN,NaN,NaN,NaN,NaN,NaN,,,NaN,NaN,NaN,NaN,,,NaN,NaN,NaN,NaN,NaN,,,,NaN,NaN,NaN,NaN,NaN,1,2020-11-12_18h32.43.233,Pirates_expt3,02.01.20,Win32,60,NaN,,NaN,NaN,NaN,NaN,NaN,,,NaN,NaN,NaN,NaN,NaN,,,NaN,NaN,NaN,NaN,NaN,"",,,NaN,NaN,NaN,NaN,NaN,NaN,NaN,NaN,NaN,NaN,NaN,NaN,,NaN,3,0,3,0,1,NaN,,NaN,,NaN,,NaN,2
NaN,NaN,NaN,NaN,NaN,"",NaN,NaN,"",NaN,,1,1,45,1,44,67,93,0.1,0.15,0.05,0.1,67,93,44,0.15,0.05,0.1,2,3,0,0,44,44,1147,25,space,0.3381,0,45,1147,25,175,0,,,NaN,NaN,NaN,NaN,NaN,1,2020-11-12_18h32.43.233,Pirates_expt3,02.01.20,Win32,60,NaN,,NaN,NaN,NaN,NaN,NaN,,,NaN,NaN,NaN,NaN,NaN,,,NaN,NaN,NaN,NaN,NaN,"",,,4,0,4,0,1,3,200,0,200,0,1,199,,NaN,200,0,200,0,1,199,,NaN,,NaN,,NaN,2
NaN,NaN,NaN,NaN,NaN,"",NaN,NaN,"",NaN,,1,1,45,1,44,72,93,0.1,0.15,0.05,0.1,72,93,44,0.15,0.05,0.1,0,4,0,0,44,44,1192,26,0,0,0,45,1192,26,174,0,,,NaN,NaN,NaN,NaN,NaN,1,2020-11-12_18h32.43.233,Pirates_expt3,02.01.20,Win32,60,NaN,,NaN,NaN,NaN,NaN,NaN,,,NaN,NaN,NaN,NaN,NaN,,,NaN,NaN,NaN,NaN,NaN,"",,,4,0,4,0,1,3,200,0,200,0,1,199,,NaN,200,0,200,0,1,199,space,0.3381,,NaN,,NaN,2
NaN,NaN,NaN,NaN,NaN,"",NaN,NaN,"",NaN,,NaN,NaN,NaN,NaN,NaN,NaN,NaN,NaN,NaN,NaN,NaN,NaN,NaN,NaN,NaN,NaN,NaN,NaN,NaN,,,NaN,NaN,NaN,NaN,,,NaN,NaN,NaN,NaN,NaN,,,,NaN,NaN,NaN,NaN,NaN,1,2020-11-12_18h32.43.233,Pirates_expt3,02.01.20,Win32,60,NaN,,NaN,NaN,NaN,NaN,NaN,,,NaN,NaN,NaN,NaN,NaN,,,NaN,NaN,NaN,NaN,NaN,"",,,NaN,NaN,NaN,NaN,NaN,NaN,NaN,NaN,NaN,NaN,NaN,NaN,,NaN,4,0,4,0,1,NaN,,NaN,,NaN,,NaN,2
NaN,NaN,NaN,NaN,NaN,"",NaN,NaN,"",NaN,,1,1,45,1,34,72,93,0.1,0.15,0.05,0.1,72,93,34,0.15,0.05,0.1,3,3,0,0,34,34,1192,26,s,0.473005,5,45,1192,26,174,0,,,NaN,NaN,NaN,NaN,NaN,1,2020-11-12_18h32.43.233,Pirates_expt3,02.01.20,Win32,60,NaN,,NaN,NaN,NaN,NaN,NaN,,,NaN,NaN,NaN,NaN,NaN,,,NaN,NaN,NaN,NaN,NaN,"",,,4,0,4,0,1,3,200,0,200,0,1,199,,NaN,200,0,200,0,1,199,,NaN,,NaN,,NaN,2
NaN,NaN,NaN,NaN,NaN,"",NaN,NaN,"",NaN,,1,1,44,1,41,76,94,0.1,0.15,0.05,0.1,76,94,41,0.15,0.05,0.1,0,4,0,0,41,34,1192,27,0,0,0,44,1192,27,173,9.848,,,NaN,NaN,NaN,NaN,NaN,1,2020-11-12_18h32.43.233,Pirates_expt3,02.01.20,Win32,60,NaN,,NaN,NaN,NaN,NaN,NaN,,,NaN,NaN,NaN,NaN,NaN,,,NaN,NaN,NaN,NaN,NaN,"",,,4,0,4,0,1,3,200,0,200,0,1,199,,NaN,200,0,200,0,1,199,s,0.473005,,NaN,,NaN,2
NaN,NaN,NaN,NaN,NaN,"",NaN,NaN,"",NaN,,NaN,NaN,NaN,NaN,NaN,NaN,NaN,NaN,NaN,NaN,NaN,NaN,NaN,NaN,NaN,NaN,NaN,NaN,NaN,,,NaN,NaN,NaN,NaN,,,NaN,NaN,NaN,NaN,NaN,,,,NaN,NaN,NaN,NaN,NaN,1,2020-11-12_18h32.43.233,Pirates_expt3,02.01.20,Win32,60,NaN,,NaN,NaN,NaN,NaN,NaN,,,NaN,NaN,NaN,NaN,NaN,,,NaN,NaN,NaN,NaN,NaN,"",,,NaN,NaN,NaN,NaN,NaN,NaN,2,0,2,0,1,NaN,,NaN,NaN,NaN,NaN,NaN,NaN,NaN,,NaN,,NaN,,NaN,2
NaN,NaN,NaN,NaN,NaN,"",NaN,NaN,"",NaN,,1,1,44,3,41,76,94,0.1,0.15,0.05,0.05,76,94,41,0.15,0.05,0.1,1,1,k,138.105,0,0,1192,28,N/A,0,0,44,1192,28,172,0,,,NaN,NaN,NaN,NaN,NaN,1,2020-11-12_18h32.43.233,Pirates_expt3,02.01.20,Win32,60,NaN,,NaN,NaN,NaN,NaN,NaN,,,NaN,NaN,NaN,NaN,NaN,,,NaN,NaN,NaN,NaN,NaN,"",,,4,0,4,0,1,3,200,0,200,0,1,199,,NaN,NaN,NaN,NaN,NaN,NaN,NaN,,NaN,,NaN,,NaN,2
NaN,NaN,NaN,NaN,NaN,"",NaN,NaN,"",NaN,,1,1,44,3,47,80,94,0.1,0.15,0.05,0.05,80,94,47,0.15,0.05,0.1,0,2,0,0,0,0,1192,28,N/A,0,0,44,1192,28,172,0,,,NaN,NaN,NaN,NaN,NaN,1,2020-11-12_18h32.43.233,Pirates_expt3,02.01.20,Win32,60,NaN,,NaN,NaN,NaN,NaN,NaN,,,NaN,NaN,NaN,NaN,NaN,,,NaN,NaN,NaN,NaN,NaN,"",,,4,0,4,0,1,3,200,0,200,0,1,199,k,138.105,NaN,NaN,NaN,NaN,NaN,NaN,,NaN,,NaN,,NaN,2
NaN,NaN,NaN,NaN,NaN,"",NaN,NaN,"",NaN,,1,1,42,3,47,80,94,0.1,0.15,0.05,0.05,80,94,47,0.15,0.05,0.1,2,3,0,0,94,94,1192,28,space,0.202425,0,42,1192,28,172,0,,,NaN,NaN,NaN,NaN,NaN,1,2020-11-12_18h32.43.233,Pirates_expt3,02.01.20,Win32,60,NaN,,NaN,NaN,NaN,NaN,NaN,,,NaN,NaN,NaN,NaN,NaN,,,NaN,NaN,NaN,NaN,NaN,"",,,4,0,4,0,1,3,200,0,200,0,1,199,,NaN,200,0,200,0,1,199,,NaN,,NaN,,NaN,2
NaN,NaN,NaN,NaN,NaN,"",NaN,NaN,"",NaN,,1,1,44,3,52,83,94,0.1,0.15,0.05,0.05,83,94,52,0.15,0.05,0.1,0,4,0,0,94,94,1287,29,0,0,0,44,1287,29,171,0,,,NaN,NaN,NaN,NaN,NaN,1,2020-11-12_18h32.43.233,Pirates_expt3,02.01.20,Win32,60,NaN,,NaN,NaN,NaN,NaN,NaN,,,NaN,NaN,NaN,NaN,NaN,,,NaN,NaN,NaN,NaN,NaN,"",,,4,0,4,0,1,3,200,0,200,0,1,199,,NaN,200,0,200,0,1,199,space,0.202425,,NaN,,NaN,2
NaN,NaN,NaN,NaN,NaN,"",NaN,NaN,"",NaN,,NaN,NaN,NaN,NaN,NaN,NaN,NaN,NaN,NaN,NaN,NaN,NaN,NaN,NaN,NaN,NaN,NaN,NaN,NaN,,,NaN,NaN,NaN,NaN,,,NaN,NaN,NaN,NaN,NaN,,,,NaN,NaN,NaN,NaN,NaN,1,2020-11-12_18h32.43.233,Pirates_expt3,02.01.20,Win32,60,NaN,,NaN,NaN,NaN,NaN,NaN,,,NaN,NaN,NaN,NaN,NaN,,,NaN,NaN,NaN,NaN,NaN,"",,,NaN,NaN,NaN,NaN,NaN,NaN,NaN,NaN,NaN,NaN,NaN,NaN,,NaN,0,0,0,0,1,NaN,,NaN,,NaN,,NaN,2
NaN,NaN,NaN,NaN,NaN,"",NaN,NaN,"",NaN,,1,1,44,3,52,83,89,0.1,0.15,0.05,0.05,83,89,52,0.15,0.05,0.1,2,3,0,0,89,89,1287,29,space,0.052775,0,44,1287,29,171,0,,,NaN,NaN,NaN,NaN,NaN,1,2020-11-12_18h32.43.233,Pirates_expt3,02.01.20,Win32,60,NaN,,NaN,NaN,NaN,NaN,NaN,,,NaN,NaN,NaN,NaN,NaN,,,NaN,NaN,NaN,NaN,NaN,"",,,4,0,4,0,1,3,200,0,200,0,1,199,,NaN,200,0,200,0,1,199,,NaN,,NaN,,NaN,2
NaN,NaN,NaN,NaN,NaN,"",NaN,NaN,"",NaN,,1,1,45,3,57,85,89,0.1,0.15,0.05,0.05,85,89,57,0.15,0.05,0.1,0,4,0,0,89,89,1376,30,0,0,0,45,1376,30,170,0,,,NaN,NaN,NaN,NaN,NaN,1,2020-11-12_18h32.43.233,Pirates_expt3,02.01.20,Win32,60,NaN,,NaN,NaN,NaN,NaN,NaN,,,NaN,NaN,NaN,NaN,NaN,,,NaN,NaN,NaN,NaN,NaN,"",,,4,0,4,0,1,3,200,0,200,0,1,199,,NaN,200,0,200,0,1,199,space,0.052775,,NaN,,NaN,2
NaN,NaN,NaN,NaN,NaN,"",NaN,NaN,"",NaN,,NaN,NaN,NaN,NaN,NaN,NaN,NaN,NaN,NaN,NaN,NaN,NaN,NaN,NaN,NaN,NaN,NaN,NaN,NaN,,,NaN,NaN,NaN,NaN,,,NaN,NaN,NaN,NaN,NaN,,,,NaN,NaN,NaN,NaN,NaN,1,2020-11-12_18h32.43.233,Pirates_expt3,02.01.20,Win32,60,NaN,,NaN,NaN,NaN,NaN,NaN,,,NaN,NaN,NaN,NaN,NaN,,,NaN,NaN,NaN,NaN,NaN,"",,,NaN,NaN,NaN,NaN,NaN,NaN,NaN,NaN,NaN,NaN,NaN,NaN,,NaN,1,0,1,0,1,NaN,,NaN,,NaN,,NaN,2
NaN,NaN,NaN,NaN,NaN,"",NaN,NaN,"",NaN,,1,1,45,3,57,85,81,0.1,0.15,0.05,0.05,85,81,57,0.15,0.05,0.1,2,3,0,0,81,81,1376,30,space,0.261015,0,45,1376,30,170,0,,,NaN,NaN,NaN,NaN,NaN,1,2020-11-12_18h32.43.233,Pirates_expt3,02.01.20,Win32,60,NaN,,NaN,NaN,NaN,NaN,NaN,,,NaN,NaN,NaN,NaN,NaN,,,NaN,NaN,NaN,NaN,NaN,"",,,4,0,4,0,1,3,200,0,200,0,1,199,,NaN,200,0,200,0,1,199,,NaN,,NaN,,NaN,2
NaN,NaN,NaN,NaN,NaN,"",NaN,NaN,"",NaN,,1,1,47,3,61,87,81,0.1,0.15,0.05,0.05,87,81,61,0.15,0.05,0.1,0,4,0,0,81,81,1458,31,0,0,0,47,1458,31,169,0,,,NaN,NaN,NaN,NaN,NaN,1,2020-11-12_18h32.43.233,Pirates_expt3,02.01.20,Win32,60,NaN,,NaN,NaN,NaN,NaN,NaN,,,NaN,NaN,NaN,NaN,NaN,,,NaN,NaN,NaN,NaN,NaN,"",,,4,0,4,0,1,3,200,0,200,0,1,199,,NaN,200,0,200,0,1,199,space,0.261015,,NaN,,NaN,2
NaN,NaN,NaN,NaN,NaN,"",NaN,NaN,"",NaN,,NaN,NaN,NaN,NaN,NaN,NaN,NaN,NaN,NaN,NaN,NaN,NaN,NaN,NaN,NaN,NaN,NaN,NaN,NaN,,,NaN,NaN,NaN,NaN,,,NaN,NaN,NaN,NaN,NaN,,,,NaN,NaN,NaN,NaN,NaN,1,2020-11-12_18h32.43.233,Pirates_expt3,02.01.20,Win32,60,NaN,,NaN,NaN,NaN,NaN,NaN,,,NaN,NaN,NaN,NaN,NaN,,,NaN,NaN,NaN,NaN,NaN,"",,,NaN,NaN,NaN,NaN,NaN,NaN,NaN,NaN,NaN,NaN,NaN,NaN,,NaN,2,0,2,0,1,NaN,,NaN,,NaN,,NaN,2
NaN,NaN,NaN,NaN,NaN,"",NaN,NaN,"",NaN,,1,1,47,3,61,87,69,0.1,0.15,0.05,0.05,87,69,61,0.15,0.05,0.1,2,3,0,0,69,69,1458,31,space,0.05198,0,47,1458,31,169,0,,,NaN,NaN,NaN,NaN,NaN,1,2020-11-12_18h32.43.233,Pirates_expt3,02.01.20,Win32,60,NaN,,NaN,NaN,NaN,NaN,NaN,,,NaN,NaN,NaN,NaN,NaN,,,NaN,NaN,NaN,NaN,NaN,"",,,4,0,4,0,1,3,200,0,200,0,1,199,,NaN,200,0,200,0,1,199,,NaN,,NaN,,NaN,2
NaN,NaN,NaN,NaN,NaN,"",NaN,NaN,"",NaN,,1,1,47,3,65,89,69,0.1,0.15,0.05,0.05,89,69,65,0.15,0.05,0.1,0,4,0,0,69,69,1527,32,0,0,0,47,1527,32,168,0,,,NaN,NaN,NaN,NaN,NaN,1,2020-11-12_18h32.43.233,Pirates_expt3,02.01.20,Win32,60,NaN,,NaN,NaN,NaN,NaN,NaN,,,NaN,NaN,NaN,NaN,NaN,,,NaN,NaN,NaN,NaN,NaN,"",,,4,0,4,0,1,3,200,0,200,0,1,199,,NaN,200,0,200,0,1,199,space,0.05198,,NaN,,NaN,2
NaN,NaN,NaN,NaN,NaN,"",NaN,NaN,"",NaN,,NaN,NaN,NaN,NaN,NaN,NaN,NaN,NaN,NaN,NaN,NaN,NaN,NaN,NaN,NaN,NaN,NaN,NaN,NaN,,,NaN,NaN,NaN,NaN,,,NaN,NaN,NaN,NaN,NaN,,,,NaN,NaN,NaN,NaN,NaN,1,2020-11-12_18h32.43.233,Pirates_expt3,02.01.20,Win32,60,NaN,,NaN,NaN,NaN,NaN,NaN,,,NaN,NaN,NaN,NaN,NaN,,,NaN,NaN,NaN,NaN,NaN,"",,,NaN,NaN,NaN,NaN,NaN,NaN,NaN,NaN,NaN,NaN,NaN,NaN,,NaN,3,0,3,0,1,NaN,,NaN,,NaN,,NaN,2
NaN,NaN,NaN,NaN,NaN,"",NaN,NaN,"",NaN,,1,1,47,3,65,89,56,0.1,0.15,0.05,0.05,89,56,65,0.15,0.05,0.1,2,3,0,0,56,56,1527,32,space,0.167825,0,47,1527,32,168,0,,,NaN,NaN,NaN,NaN,NaN,1,2020-11-12_18h32.43.233,Pirates_expt3,02.01.20,Win32,60,NaN,,NaN,NaN,NaN,NaN,NaN,,,NaN,NaN,NaN,NaN,NaN,,,NaN,NaN,NaN,NaN,NaN,"",,,4,0,4,0,1,3,200,0,200,0,1,199,,NaN,200,0,200,0,1,199,,NaN,,NaN,,NaN,2
NaN,NaN,NaN,NaN,NaN,"",NaN,NaN,"",NaN,,1,1,48,3,68,91,56,0.1,0.15,0.05,0.05,91,56,68,0.15,0.05,0.1,0,4,0,0,56,56,1584,33,0,0,0,48,1584,33,167,0,,,NaN,NaN,NaN,NaN,NaN,1,2020-11-12_18h32.43.233,Pirates_expt3,02.01.20,Win32,60,NaN,,NaN,NaN,NaN,NaN,NaN,,,NaN,NaN,NaN,NaN,NaN,,,NaN,NaN,NaN,NaN,NaN,"",,,4,0,4,0,1,3,200,0,200,0,1,199,,NaN,200,0,200,0,1,199,space,0.167825,,NaN,,NaN,2
NaN,NaN,NaN,NaN,NaN,"",NaN,NaN,"",NaN,,NaN,NaN,NaN,NaN,NaN,NaN,NaN,NaN,NaN,NaN,NaN,NaN,NaN,NaN,NaN,NaN,NaN,NaN,NaN,,,NaN,NaN,NaN,NaN,,,NaN,NaN,NaN,NaN,NaN,,,,NaN,NaN,NaN,NaN,NaN,1,2020-11-12_18h32.43.233,Pirates_expt3,02.01.20,Win32,60,NaN,,NaN,NaN,NaN,NaN,NaN,,,NaN,NaN,NaN,NaN,NaN,,,NaN,NaN,NaN,NaN,NaN,"",,,NaN,NaN,NaN,NaN,NaN,NaN,NaN,NaN,NaN,NaN,NaN,NaN,,NaN,4,0,4,0,1,NaN,,NaN,,NaN,,NaN,2
NaN,NaN,NaN,NaN,NaN,"",NaN,NaN,"",NaN,,1,1,48,3,68,91,43,0.1,0.15,0.05,0.05,91,43,68,0.15,0.05,0.1,2,3,0,0,43,43,1584,33,space,0.49598,0,48,1584,33,167,0,,,NaN,NaN,NaN,NaN,NaN,1,2020-11-12_18h32.43.233,Pirates_expt3,02.01.20,Win32,60,NaN,,NaN,NaN,NaN,NaN,NaN,,,NaN,NaN,NaN,NaN,NaN,,,NaN,NaN,NaN,NaN,NaN,"",,,4,0,4,0,1,3,200,0,200,0,1,199,,NaN,200,0,200,0,1,199,,NaN,,NaN,,NaN,2
NaN,NaN,NaN,NaN,NaN,"",NaN,NaN,"",NaN,,1,1,47,3,71,92,43,0.1,0.15,0.05,0.05,92,43,71,0.15,0.05,0.1,0,4,0,0,43,43,1627,34,0,0,0,47,1627,34,166,0,,,NaN,NaN,NaN,NaN,NaN,1,2020-11-12_18h32.43.233,Pirates_expt3,02.01.20,Win32,60,NaN,,NaN,NaN,NaN,NaN,NaN,,,NaN,NaN,NaN,NaN,NaN,,,NaN,NaN,NaN,NaN,NaN,"",,,4,0,4,0,1,3,200,0,200,0,1,199,,NaN,200,0,200,0,1,199,space,0.49598,,NaN,,NaN,2
NaN,NaN,NaN,NaN,NaN,"",NaN,NaN,"",NaN,,NaN,NaN,NaN,NaN,NaN,NaN,NaN,NaN,NaN,NaN,NaN,NaN,NaN,NaN,NaN,NaN,NaN,NaN,NaN,,,NaN,NaN,NaN,NaN,,,NaN,NaN,NaN,NaN,NaN,,,,NaN,NaN,NaN,NaN,NaN,1,2020-11-12_18h32.43.233,Pirates_expt3,02.01.20,Win32,60,NaN,,NaN,NaN,NaN,NaN,NaN,,,NaN,NaN,NaN,NaN,NaN,,,NaN,NaN,NaN,NaN,NaN,"",,,NaN,NaN,NaN,NaN,NaN,NaN,NaN,NaN,NaN,NaN,NaN,NaN,,NaN,5,0,5,0,1,NaN,,NaN,,NaN,,NaN,2
NaN,NaN,NaN,NaN,NaN,"",NaN,NaN,"",NaN,,1,1,47,3,71,92,32,0.1,0.15,0.05,0.05,92,32,71,0.15,0.05,0.1,2,3,0,0,32,32,1627,34,space,0.314675,0,47,1627,34,166,0,,,NaN,NaN,NaN,NaN,NaN,1,2020-11-12_18h32.43.233,Pirates_expt3,02.01.20,Win32,60,NaN,,NaN,NaN,NaN,NaN,NaN,,,NaN,NaN,NaN,NaN,NaN,,,NaN,NaN,NaN,NaN,NaN,"",,,4,0,4,0,1,3,200,0,200,0,1,199,,NaN,200,0,200,0,1,199,,NaN,,NaN,,NaN,2
NaN,NaN,NaN,NaN,NaN,"",NaN,NaN,"",NaN,,1,1,47,3,74,93,32,0.1,0.15,0.05,0.05,93,32,74,0.15,0.05,0.1,0,4,0,0,32,32,1660,35,0,0,0,47,1660,35,165,0,,,NaN,NaN,NaN,NaN,NaN,1,2020-11-12_18h32.43.233,Pirates_expt3,02.01.20,Win32,60,NaN,,NaN,NaN,NaN,NaN,NaN,,,NaN,NaN,NaN,NaN,NaN,,,NaN,NaN,NaN,NaN,NaN,"",,,4,0,4,0,1,3,200,0,200,0,1,199,,NaN,200,0,200,0,1,199,space,0.314675,,NaN,,NaN,2
NaN,NaN,NaN,NaN,NaN,"",NaN,NaN,"",NaN,,NaN,NaN,NaN,NaN,NaN,NaN,NaN,NaN,NaN,NaN,NaN,NaN,NaN,NaN,NaN,NaN,NaN,NaN,NaN,,,NaN,NaN,NaN,NaN,,,NaN,NaN,NaN,NaN,NaN,,,,NaN,NaN,NaN,NaN,NaN,1,2020-11-12_18h32.43.233,Pirates_expt3,02.01.20,Win32,60,NaN,,NaN,NaN,NaN,NaN,NaN,,,NaN,NaN,NaN,NaN,NaN,,,NaN,NaN,NaN,NaN,NaN,"",,,NaN,NaN,NaN,NaN,NaN,NaN,NaN,NaN,NaN,NaN,NaN,NaN,,NaN,6,0,6,0,1,NaN,,NaN,,NaN,,NaN,2
NaN,NaN,NaN,NaN,NaN,"",NaN,NaN,"",NaN,,1,1,47,3,74,93,22,0.1,0.15,0.05,0.05,93,22,74,0.15,0.05,0.1,3,3,0,0,22,22,1660,35,s,0.18006,7,47,1660,35,165,0,,,NaN,NaN,NaN,NaN,NaN,1,2020-11-12_18h32.43.233,Pirates_expt3,02.01.20,Win32,60,NaN,,NaN,NaN,NaN,NaN,NaN,,,NaN,NaN,NaN,NaN,NaN,,,NaN,NaN,NaN,NaN,NaN,"",,,4,0,4,0,1,3,200,0,200,0,1,199,,NaN,200,0,200,0,1,199,,NaN,,NaN,,NaN,2
NaN,NaN,NaN,NaN,NaN,"",NaN,NaN,"",NaN,,1,1,46,3,77,94,26,0.1,0.15,0.05,0.05,94,26,77,0.15,0.05,0.1,0,4,0,0,26,22,1660,36,0,0,0,46,1660,36,164,12.497,,,NaN,NaN,NaN,NaN,NaN,1,2020-11-12_18h32.43.233,Pirates_expt3,02.01.20,Win32,60,NaN,,NaN,NaN,NaN,NaN,NaN,,,NaN,NaN,NaN,NaN,NaN,,,NaN,NaN,NaN,NaN,NaN,"",,,4,0,4,0,1,3,200,0,200,0,1,199,,NaN,200,0,200,0,1,199,s,0.18006,,NaN,,NaN,2
NaN,NaN,NaN,NaN,NaN,"",NaN,NaN,"",NaN,,NaN,NaN,NaN,NaN,NaN,NaN,NaN,NaN,NaN,NaN,NaN,NaN,NaN,NaN,NaN,NaN,NaN,NaN,NaN,,,NaN,NaN,NaN,NaN,,,NaN,NaN,NaN,NaN,NaN,,,,NaN,NaN,NaN,NaN,NaN,1,2020-11-12_18h32.43.233,Pirates_expt3,02.01.20,Win32,60,NaN,,NaN,NaN,NaN,NaN,NaN,,,NaN,NaN,NaN,NaN,NaN,,,NaN,NaN,NaN,NaN,NaN,"",,,NaN,NaN,NaN,NaN,NaN,NaN,3,0,3,0,1,NaN,,NaN,NaN,NaN,NaN,NaN,NaN,NaN,,NaN,,NaN,,NaN,2
NaN,NaN,NaN,NaN,NaN,"",NaN,NaN,"",NaN,,1,1,46,2,77,94,26,0.1,0.15,0.05,0.15,94,26,77,0.15,0.05,0.1,1,1,j,129.906,0,0,1660,37,N/A,0,0,46,1660,37,163,0,,,NaN,NaN,NaN,NaN,NaN,1,2020-11-12_18h32.43.233,Pirates_expt3,02.01.20,Win32,60,NaN,,NaN,NaN,NaN,NaN,NaN,,,NaN,NaN,NaN,NaN,NaN,,,NaN,NaN,NaN,NaN,NaN,"",,,4,0,4,0,1,3,200,0,200,0,1,199,,NaN,NaN,NaN,NaN,NaN,NaN,NaN,,NaN,,NaN,,NaN,2
NaN,NaN,NaN,NaN,NaN,"",NaN,NaN,"",NaN,,1,1,46,2,79,95,30,0.1,0.15,0.05,0.15,95,30,79,0.15,0.05,0.1,0,2,0,0,0,0,1660,37,N/A,0,0,46,1660,37,163,0,,,NaN,NaN,NaN,NaN,NaN,1,2020-11-12_18h32.43.233,Pirates_expt3,02.01.20,Win32,60,NaN,,NaN,NaN,NaN,NaN,NaN,,,NaN,NaN,NaN,NaN,NaN,,,NaN,NaN,NaN,NaN,NaN,"",,,4,0,4,0,1,3,200,0,200,0,1,199,j,129.906,NaN,NaN,NaN,NaN,NaN,NaN,,NaN,,NaN,,NaN,2
NaN,NaN,NaN,NaN,NaN,"",NaN,NaN,"",NaN,,1,1,44,2,79,95,30,0.1,0.15,0.05,0.15,95,30,79,0.15,0.05,0.1,2,3,0,0,95,95,1660,37,space,0.104215,0,44,1660,37,163,0,,,NaN,NaN,NaN,NaN,NaN,1,2020-11-12_18h32.43.233,Pirates_expt3,02.01.20,Win32,60,NaN,,NaN,NaN,NaN,NaN,NaN,,,NaN,NaN,NaN,NaN,NaN,,,NaN,NaN,NaN,NaN,NaN,"",,,4,0,4,0,1,3,200,0,200,0,1,199,,NaN,200,0,200,0,1,199,,NaN,,NaN,,NaN,2
NaN,NaN,NaN,NaN,NaN,"",NaN,NaN,"",NaN,,1,1,46,2,81,95,33,0.1,0.15,0.05,0.15,95,33,81,0.15,0.05,0.1,0,4,0,0,95,95,1755,38,0,0,0,46,1755,38,162,0,,,NaN,NaN,NaN,NaN,NaN,1,2020-11-12_18h32.43.233,Pirates_expt3,02.01.20,Win32,60,NaN,,NaN,NaN,NaN,NaN,NaN,,,NaN,NaN,NaN,NaN,NaN,,,NaN,NaN,NaN,NaN,NaN,"",,,4,0,4,0,1,3,200,0,200,0,1,199,,NaN,200,0,200,0,1,199,space,0.104215,,NaN,,NaN,2
NaN,NaN,NaN,NaN,NaN,"",NaN,NaN,"",NaN,,NaN,NaN,NaN,NaN,NaN,NaN,NaN,NaN,NaN,NaN,NaN,NaN,NaN,NaN,NaN,NaN,NaN,NaN,NaN,,,NaN,NaN,NaN,NaN,,,NaN,NaN,NaN,NaN,NaN,,,,NaN,NaN,NaN,NaN,NaN,1,2020-11-12_18h32.43.233,Pirates_expt3,02.01.20,Win32,60,NaN,,NaN,NaN,NaN,NaN,NaN,,,NaN,NaN,NaN,NaN,NaN,,,NaN,NaN,NaN,NaN,NaN,"",,,NaN,NaN,NaN,NaN,NaN,NaN,NaN,NaN,NaN,NaN,NaN,NaN,,NaN,0,0,0,0,1,NaN,,NaN,,NaN,,NaN,2
NaN,NaN,NaN,NaN,NaN,"",NaN,NaN,"",NaN,,1,1,46,2,81,90,33,0.1,0.15,0.05,0.15,90,33,81,0.15,0.05,0.1,2,3,0,0,90,90,1755,38,space,0.29923,0,46,1755,38,162,0,,,NaN,NaN,NaN,NaN,NaN,1,2020-11-12_18h32.43.233,Pirates_expt3,02.01.20,Win32,60,NaN,,NaN,NaN,NaN,NaN,NaN,,,NaN,NaN,NaN,NaN,NaN,,,NaN,NaN,NaN,NaN,NaN,"",,,4,0,4,0,1,3,200,0,200,0,1,199,,NaN,200,0,200,0,1,199,,NaN,,NaN,,NaN,2
NaN,NaN,NaN,NaN,NaN,"",NaN,NaN,"",NaN,,1,1,47,2,83,90,36,0.1,0.15,0.05,0.15,90,36,83,0.15,0.05,0.1,0,4,0,0,90,90,1846,39,0,0,0,47,1846,39,161,0,,,NaN,NaN,NaN,NaN,NaN,1,2020-11-12_18h32.43.233,Pirates_expt3,02.01.20,Win32,60,NaN,,NaN,NaN,NaN,NaN,NaN,,,NaN,NaN,NaN,NaN,NaN,,,NaN,NaN,NaN,NaN,NaN,"",,,4,0,4,0,1,3,200,0,200,0,1,199,,NaN,200,0,200,0,1,199,space,0.29923,,NaN,,NaN,2
NaN,NaN,NaN,NaN,NaN,"",NaN,NaN,"",NaN,,NaN,NaN,NaN,NaN,NaN,NaN,NaN,NaN,NaN,NaN,NaN,NaN,NaN,NaN,NaN,NaN,NaN,NaN,NaN,,,NaN,NaN,NaN,NaN,,,NaN,NaN,NaN,NaN,NaN,,,,NaN,NaN,NaN,NaN,NaN,1,2020-11-12_18h32.43.233,Pirates_expt3,02.01.20,Win32,60,NaN,,NaN,NaN,NaN,NaN,NaN,,,NaN,NaN,NaN,NaN,NaN,,,NaN,NaN,NaN,NaN,NaN,"",,,NaN,NaN,NaN,NaN,NaN,NaN,NaN,NaN,NaN,NaN,NaN,NaN,,NaN,1,0,1,0,1,NaN,,NaN,,NaN,,NaN,2
NaN,NaN,NaN,NaN,NaN,"",NaN,NaN,"",NaN,,1,1,47,2,83,81,36,0.1,0.15,0.05,0.15,81,36,83,0.15,0.05,0.1,2,3,0,0,81,81,1846,39,space,0.244455,0,47,1846,39,161,0,,,NaN,NaN,NaN,NaN,NaN,1,2020-11-12_18h32.43.233,Pirates_expt3,02.01.20,Win32,60,NaN,,NaN,NaN,NaN,NaN,NaN,,,NaN,NaN,NaN,NaN,NaN,,,NaN,NaN,NaN,NaN,NaN,"",,,4,0,4,0,1,3,200,0,200,0,1,199,,NaN,200,0,200,0,1,199,,NaN,,NaN,,NaN,2
NaN,NaN,NaN,NaN,NaN,"",NaN,NaN,"",NaN,,1,1,48,2,85,81,40,0.1,0.15,0.05,0.15,81,40,85,0.15,0.05,0.1,0,4,0,0,81,81,1928,40,0,0,0,48,1928,40,160,0,,,NaN,NaN,NaN,NaN,NaN,1,2020-11-12_18h32.43.233,Pirates_expt3,02.01.20,Win32,60,NaN,,NaN,NaN,NaN,NaN,NaN,,,NaN,NaN,NaN,NaN,NaN,,,NaN,NaN,NaN,NaN,NaN,"",,,4,0,4,0,1,3,200,0,200,0,1,199,,NaN,200,0,200,0,1,199,space,0.244455,,NaN,,NaN,2
NaN,NaN,NaN,NaN,NaN,"",NaN,NaN,"",NaN,,NaN,NaN,NaN,NaN,NaN,NaN,NaN,NaN,NaN,NaN,NaN,NaN,NaN,NaN,NaN,NaN,NaN,NaN,NaN,,,NaN,NaN,NaN,NaN,,,NaN,NaN,NaN,NaN,NaN,,,,NaN,NaN,NaN,NaN,NaN,1,2020-11-12_18h32.43.233,Pirates_expt3,02.01.20,Win32,60,NaN,,NaN,NaN,NaN,NaN,NaN,,,NaN,NaN,NaN,NaN,NaN,,,NaN,NaN,NaN,NaN,NaN,"",,,NaN,NaN,NaN,NaN,NaN,NaN,NaN,NaN,NaN,NaN,NaN,NaN,,NaN,2,0,2,0,1,NaN,,NaN,,NaN,,NaN,2
NaN,NaN,NaN,NaN,NaN,"",NaN,NaN,"",NaN,,1,1,48,2,85,70,40,0.1,0.15,0.05,0.15,70,40,85,0.15,0.05,0.1,2,3,0,0,70,70,1928,40,space,0.580445,0,48,1928,40,160,0,,,NaN,NaN,NaN,NaN,NaN,1,2020-11-12_18h32.43.233,Pirates_expt3,02.01.20,Win32,60,NaN,,NaN,NaN,NaN,NaN,NaN,,,NaN,NaN,NaN,NaN,NaN,,,NaN,NaN,NaN,NaN,NaN,"",,,4,0,4,0,1,3,200,0,200,0,1,199,,NaN,200,0,200,0,1,199,,NaN,,NaN,,NaN,2
NaN,NaN,NaN,NaN,NaN,"",NaN,NaN,"",NaN,,1,1,48,2,86,70,43,0.1,0.15,0.05,0.15,70,43,86,0.15,0.05,0.1,0,4,0,0,70,70,1998,41,0,0,0,48,1998,41,159,0,,,NaN,NaN,NaN,NaN,NaN,1,2020-11-12_18h32.43.233,Pirates_expt3,02.01.20,Win32,60,NaN,,NaN,NaN,NaN,NaN,NaN,,,NaN,NaN,NaN,NaN,NaN,,,NaN,NaN,NaN,NaN,NaN,"",,,4,0,4,0,1,3,200,0,200,0,1,199,,NaN,200,0,200,0,1,199,space,0.580445,,NaN,,NaN,2
NaN,NaN,NaN,NaN,NaN,"",NaN,NaN,"",NaN,,NaN,NaN,NaN,NaN,NaN,NaN,NaN,NaN,NaN,NaN,NaN,NaN,NaN,NaN,NaN,NaN,NaN,NaN,NaN,,,NaN,NaN,NaN,NaN,,,NaN,NaN,NaN,NaN,NaN,,,,NaN,NaN,NaN,NaN,NaN,1,2020-11-12_18h32.43.233,Pirates_expt3,02.01.20,Win32,60,NaN,,NaN,NaN,NaN,NaN,NaN,,,NaN,NaN,NaN,NaN,NaN,,,NaN,NaN,NaN,NaN,NaN,"",,,NaN,NaN,NaN,NaN,NaN,NaN,NaN,NaN,NaN,NaN,NaN,NaN,,NaN,3,0,3,0,1,NaN,,NaN,,NaN,,NaN,2
NaN,NaN,NaN,NaN,NaN,"",NaN,NaN,"",NaN,,1,1,48,2,86,57,43,0.1,0.15,0.05,0.15,57,43,86,0.15,0.05,0.1,2,3,0,0,57,57,1998,41,space,0.330025,0,48,1998,41,159,0,,,NaN,NaN,NaN,NaN,NaN,1,2020-11-12_18h32.43.233,Pirates_expt3,02.01.20,Win32,60,NaN,,NaN,NaN,NaN,NaN,NaN,,,NaN,NaN,NaN,NaN,NaN,,,NaN,NaN,NaN,NaN,NaN,"",,,4,0,4,0,1,3,200,0,200,0,1,199,,NaN,200,0,200,0,1,199,,NaN,,NaN,,NaN,2
NaN,NaN,NaN,NaN,NaN,"",NaN,NaN,"",NaN,,1,1,48,2,87,57,45,0.1,0.15,0.05,0.15,57,45,87,0.15,0.05,0.1,0,4,0,0,57,57,2055,42,0,0,0,48,2055,42,158,0,,,NaN,NaN,NaN,NaN,NaN,1,2020-11-12_18h32.43.233,Pirates_expt3,02.01.20,Win32,60,NaN,,NaN,NaN,NaN,NaN,NaN,,,NaN,NaN,NaN,NaN,NaN,,,NaN,NaN,NaN,NaN,NaN,"",,,4,0,4,0,1,3,200,0,200,0,1,199,,NaN,200,0,200,0,1,199,space,0.330025,,NaN,,NaN,2
NaN,NaN,NaN,NaN,NaN,"",NaN,NaN,"",NaN,,NaN,NaN,NaN,NaN,NaN,NaN,NaN,NaN,NaN,NaN,NaN,NaN,NaN,NaN,NaN,NaN,NaN,NaN,NaN,,,NaN,NaN,NaN,NaN,,,NaN,NaN,NaN,NaN,NaN,,,,NaN,NaN,NaN,NaN,NaN,1,2020-11-12_18h32.43.233,Pirates_expt3,02.01.20,Win32,60,NaN,,NaN,NaN,NaN,NaN,NaN,,,NaN,NaN,NaN,NaN,NaN,,,NaN,NaN,NaN,NaN,NaN,"",,,NaN,NaN,NaN,NaN,NaN,NaN,NaN,NaN,NaN,NaN,NaN,NaN,,NaN,4,0,4,0,1,NaN,,NaN,,NaN,,NaN,2
NaN,NaN,NaN,NaN,NaN,"",NaN,NaN,"",NaN,,1,1,48,2,87,44,45,0.1,0.15,0.05,0.15,44,45,87,0.15,0.05,0.1,3,3,0,0,44,44,2055,42,s,0.086935,5,48,2055,42,158,0,,,NaN,NaN,NaN,NaN,NaN,1,2020-11-12_18h32.43.233,Pirates_expt3,02.01.20,Win32,60,NaN,,NaN,NaN,NaN,NaN,NaN,,,NaN,NaN,NaN,NaN,NaN,,,NaN,NaN,NaN,NaN,NaN,"",,,4,0,4,0,1,3,200,0,200,0,1,199,,NaN,200,0,200,0,1,199,,NaN,,NaN,,NaN,2
NaN,NaN,NaN,NaN,NaN,"",NaN,NaN,"",NaN,,1,1,47,2,89,52,48,0.1,0.15,0.05,0.15,52,48,89,0.15,0.05,0.1,0,4,0,0,52,44,2055,43,0,0,0,47,2055,43,157,9.307,,,NaN,NaN,NaN,NaN,NaN,1,2020-11-12_18h32.43.233,Pirates_expt3,02.01.20,Win32,60,NaN,,NaN,NaN,NaN,NaN,NaN,,,NaN,NaN,NaN,NaN,NaN,,,NaN,NaN,NaN,NaN,NaN,"",,,4,0,4,0,1,3,200,0,200,0,1,199,,NaN,200,0,200,0,1,199,s,0.086935,,NaN,,NaN,2
NaN,NaN,NaN,NaN,NaN,"",NaN,NaN,"",NaN,,NaN,NaN,NaN,NaN,NaN,NaN,NaN,NaN,NaN,NaN,NaN,NaN,NaN,NaN,NaN,NaN,NaN,NaN,NaN,,,NaN,NaN,NaN,NaN,,,NaN,NaN,NaN,NaN,NaN,,,,NaN,NaN,NaN,NaN,NaN,1,2020-11-12_18h32.43.233,Pirates_expt3,02.01.20,Win32,60,NaN,,NaN,NaN,NaN,NaN,NaN,,,NaN,NaN,NaN,NaN,NaN,,,NaN,NaN,NaN,NaN,NaN,"",,,NaN,NaN,NaN,NaN,NaN,NaN,4,0,4,0,1,NaN,,NaN,NaN,NaN,NaN,NaN,NaN,NaN,,NaN,,NaN,,NaN,2
NaN,NaN,NaN,NaN,NaN,"",NaN,NaN,"",NaN,,1,1,47,1,89,52,48,0.1,0.15,0.05,0.1,52,48,89,0.15,0.05,0.1,1,1,f,118.627,0,0,2055,44,N/A,0,0,47,2055,44,156,0,,,NaN,NaN,NaN,NaN,NaN,1,2020-11-12_18h32.43.233,Pirates_expt3,02.01.20,Win32,60,NaN,,NaN,NaN,NaN,NaN,NaN,,,NaN,NaN,NaN,NaN,NaN,,,NaN,NaN,NaN,NaN,NaN,"",,,4,0,4,0,1,3,200,0,200,0,1,199,,NaN,NaN,NaN,NaN,NaN,NaN,NaN,,NaN,,NaN,,NaN,2
NaN,NaN,NaN,NaN,NaN,"",NaN,NaN,"",NaN,,1,1,47,1,90,59,51,0.1,0.15,0.05,0.1,59,51,90,0.15,0.05,0.1,0,2,0,0,0,0,2055,44,N/A,0,0,47,2055,44,156,0,,,NaN,NaN,NaN,NaN,NaN,1,2020-11-12_18h32.43.233,Pirates_expt3,02.01.20,Win32,60,NaN,,NaN,NaN,NaN,NaN,NaN,,,NaN,NaN,NaN,NaN,NaN,,,NaN,NaN,NaN,NaN,NaN,"",,,4,0,4,0,1,3,200,0,200,0,1,199,f,118.627,NaN,NaN,NaN,NaN,NaN,NaN,,NaN,,NaN,,NaN,2
NaN,NaN,NaN,NaN,NaN,"",NaN,NaN,"",NaN,,1,1,46,1,90,59,51,0.1,0.15,0.05,0.1,59,51,90,0.15,0.05,0.1,2,3,0,0,90,90,2055,44,space,0.19976,0,46,2055,44,156,0,,,NaN,NaN,NaN,NaN,NaN,1,2020-11-12_18h32.43.233,Pirates_expt3,02.01.20,Win32,60,NaN,,NaN,NaN,NaN,NaN,NaN,,,NaN,NaN,NaN,NaN,NaN,,,NaN,NaN,NaN,NaN,NaN,"",,,4,0,4,0,1,3,200,0,200,0,1,199,,NaN,200,0,200,0,1,199,,NaN,,NaN,,NaN,2
NaN,NaN,NaN,NaN,NaN,"",NaN,NaN,"",NaN,,1,1,47,1,90,65,53,0.1,0.15,0.05,0.1,65,53,90,0.15,0.05,0.1,0,4,0,0,90,90,2145,45,0,0,0,47,2145,45,155,0,,,NaN,NaN,NaN,NaN,NaN,1,2020-11-12_18h32.43.233,Pirates_expt3,02.01.20,Win32,60,NaN,,NaN,NaN,NaN,NaN,NaN,,,NaN,NaN,NaN,NaN,NaN,,,NaN,NaN,NaN,NaN,NaN,"",,,4,0,4,0,1,3,200,0,200,0,1,199,,NaN,200,0,200,0,1,199,space,0.19976,,NaN,,NaN,2
NaN,NaN,NaN,NaN,NaN,"",NaN,NaN,"",NaN,,NaN,NaN,NaN,NaN,NaN,NaN,NaN,NaN,NaN,NaN,NaN,NaN,NaN,NaN,NaN,NaN,NaN,NaN,NaN,,,NaN,NaN,NaN,NaN,,,NaN,NaN,NaN,NaN,NaN,,,,NaN,NaN,NaN,NaN,NaN,1,2020-11-12_18h32.43.233,Pirates_expt3,02.01.20,Win32,60,NaN,,NaN,NaN,NaN,NaN,NaN,,,NaN,NaN,NaN,NaN,NaN,,,NaN,NaN,NaN,NaN,NaN,"",,,NaN,NaN,NaN,NaN,NaN,NaN,NaN,NaN,NaN,NaN,NaN,NaN,,NaN,0,0,0,0,1,NaN,,NaN,,NaN,,NaN,2
NaN,NaN,NaN,NaN,NaN,"",NaN,NaN,"",NaN,,1,1,47,1,85,65,53,0.1,0.15,0.05,0.1,65,53,85,0.15,0.05,0.1,2,3,0,0,85,85,2145,45,space,0.210705,0,47,2145,45,155,0,,,NaN,NaN,NaN,NaN,NaN,1,2020-11-12_18h32.43.233,Pirates_expt3,02.01.20,Win32,60,NaN,,NaN,NaN,NaN,NaN,NaN,,,NaN,NaN,NaN,NaN,NaN,,,NaN,NaN,NaN,NaN,NaN,"",,,4,0,4,0,1,3,200,0,200,0,1,199,,NaN,200,0,200,0,1,199,,NaN,,NaN,,NaN,2
NaN,NaN,NaN,NaN,NaN,"",NaN,NaN,"",NaN,,1,1,48,1,85,70,55,0.1,0.15,0.05,0.1,70,55,85,0.15,0.05,0.1,0,4,0,0,85,85,2231,46,0,0,0,48,2231,46,154,0,,,NaN,NaN,NaN,NaN,NaN,1,2020-11-12_18h32.43.233,Pirates_expt3,02.01.20,Win32,60,NaN,,NaN,NaN,NaN,NaN,NaN,,,NaN,NaN,NaN,NaN,NaN,,,NaN,NaN,NaN,NaN,NaN,"",,,4,0,4,0,1,3,200,0,200,0,1,199,,NaN,200,0,200,0,1,199,space,0.210705,,NaN,,NaN,2
NaN,NaN,NaN,NaN,NaN,"",NaN,NaN,"",NaN,,NaN,NaN,NaN,NaN,NaN,NaN,NaN,NaN,NaN,NaN,NaN,NaN,NaN,NaN,NaN,NaN,NaN,NaN,NaN,,,NaN,NaN,NaN,NaN,,,NaN,NaN,NaN,NaN,NaN,,,,NaN,NaN,NaN,NaN,NaN,1,2020-11-12_18h32.43.233,Pirates_expt3,02.01.20,Win32,60,NaN,,NaN,NaN,NaN,NaN,NaN,,,NaN,NaN,NaN,NaN,NaN,,,NaN,NaN,NaN,NaN,NaN,"",,,NaN,NaN,NaN,NaN,NaN,NaN,NaN,NaN,NaN,NaN,NaN,NaN,,NaN,1,0,1,0,1,NaN,,NaN,,NaN,,NaN,2
NaN,NaN,NaN,NaN,NaN,"",NaN,NaN,"",NaN,,1,1,48,1,77,70,55,0.1,0.15,0.05,0.1,70,55,77,0.15,0.05,0.1,2,3,0,0,77,77,2231,46,space,0.18827,0,48,2231,46,154,0,,,NaN,NaN,NaN,NaN,NaN,1,2020-11-12_18h32.43.233,Pirates_expt3,02.01.20,Win32,60,NaN,,NaN,NaN,NaN,NaN,NaN,,,NaN,NaN,NaN,NaN,NaN,,,NaN,NaN,NaN,NaN,NaN,"",,,4,0,4,0,1,3,200,0,200,0,1,199,,NaN,200,0,200,0,1,199,,NaN,,NaN,,NaN,2
NaN,NaN,NaN,NaN,NaN,"",NaN,NaN,"",NaN,,1,1,49,1,77,75,58,0.1,0.15,0.05,0.1,75,58,77,0.15,0.05,0.1,0,4,0,0,77,77,2308,47,0,0,0,49,2308,47,153,0,,,NaN,NaN,NaN,NaN,NaN,1,2020-11-12_18h32.43.233,Pirates_expt3,02.01.20,Win32,60,NaN,,NaN,NaN,NaN,NaN,NaN,,,NaN,NaN,NaN,NaN,NaN,,,NaN,NaN,NaN,NaN,NaN,"",,,4,0,4,0,1,3,200,0,200,0,1,199,,NaN,200,0,200,0,1,199,space,0.18827,,NaN,,NaN,2
NaN,NaN,NaN,NaN,NaN,"",NaN,NaN,"",NaN,,NaN,NaN,NaN,NaN,NaN,NaN,NaN,NaN,NaN,NaN,NaN,NaN,NaN,NaN,NaN,NaN,NaN,NaN,NaN,,,NaN,NaN,NaN,NaN,,,NaN,NaN,NaN,NaN,NaN,,,,NaN,NaN,NaN,NaN,NaN,1,2020-11-12_18h32.43.233,Pirates_expt3,02.01.20,Win32,60,NaN,,NaN,NaN,NaN,NaN,NaN,,,NaN,NaN,NaN,NaN,NaN,,,NaN,NaN,NaN,NaN,NaN,"",,,NaN,NaN,NaN,NaN,NaN,NaN,NaN,NaN,NaN,NaN,NaN,NaN,,NaN,2,0,2,0,1,NaN,,NaN,,NaN,,NaN,2
NaN,NaN,NaN,NaN,NaN,"",NaN,NaN,"",NaN,,1,1,49,1,66,75,58,0.1,0.15,0.05,0.1,75,58,66,0.15,0.05,0.1,2,3,0,0,66,66,2308,47,space,0.164205,0,49,2308,47,153,0,,,NaN,NaN,NaN,NaN,NaN,1,2020-11-12_18h32.43.233,Pirates_expt3,02.01.20,Win32,60,NaN,,NaN,NaN,NaN,NaN,NaN,,,NaN,NaN,NaN,NaN,NaN,,,NaN,NaN,NaN,NaN,NaN,"",,,4,0,4,0,1,3,200,0,200,0,1,199,,NaN,200,0,200,0,1,199,,NaN,,NaN,,NaN,2
NaN,NaN,NaN,NaN,NaN,"",NaN,NaN,"",NaN,,1,1,49,1,66,78,60,0.1,0.15,0.05,0.1,78,60,66,0.15,0.05,0.1,0,4,0,0,66,66,2374,48,0,0,0,49,2374,48,152,0,,,NaN,NaN,NaN,NaN,NaN,1,2020-11-12_18h32.43.233,Pirates_expt3,02.01.20,Win32,60,NaN,,NaN,NaN,NaN,NaN,NaN,,,NaN,NaN,NaN,NaN,NaN,,,NaN,NaN,NaN,NaN,NaN,"",,,4,0,4,0,1,3,200,0,200,0,1,199,,NaN,200,0,200,0,1,199,space,0.164205,,NaN,,NaN,2
NaN,NaN,NaN,NaN,NaN,"",NaN,NaN,"",NaN,,NaN,NaN,NaN,NaN,NaN,NaN,NaN,NaN,NaN,NaN,NaN,NaN,NaN,NaN,NaN,NaN,NaN,NaN,NaN,,,NaN,NaN,NaN,NaN,,,NaN,NaN,NaN,NaN,NaN,,,,NaN,NaN,NaN,NaN,NaN,1,2020-11-12_18h32.43.233,Pirates_expt3,02.01.20,Win32,60,NaN,,NaN,NaN,NaN,NaN,NaN,,,NaN,NaN,NaN,NaN,NaN,,,NaN,NaN,NaN,NaN,NaN,"",,,NaN,NaN,NaN,NaN,NaN,NaN,NaN,NaN,NaN,NaN,NaN,NaN,,NaN,3,0,3,0,1,NaN,,NaN,,NaN,,NaN,2
NaN,NaN,NaN,NaN,NaN,"",NaN,NaN,"",NaN,,1,1,49,1,54,78,60,0.1,0.15,0.05,0.1,78,60,54,0.15,0.05,0.1,2,3,0,0,54,54,2374,48,space,0.333235,0,49,2374,48,152,0,,,NaN,NaN,NaN,NaN,NaN,1,2020-11-12_18h32.43.233,Pirates_expt3,02.01.20,Win32,60,NaN,,NaN,NaN,NaN,NaN,NaN,,,NaN,NaN,NaN,NaN,NaN,,,NaN,NaN,NaN,NaN,NaN,"",,,4,0,4,0,1,3,200,0,200,0,1,199,,NaN,200,0,200,0,1,199,,NaN,,NaN,,NaN,2
NaN,NaN,NaN,NaN,NaN,"",NaN,NaN,"",NaN,,1,1,49,1,54,82,62,0.1,0.15,0.05,0.1,82,62,54,0.15,0.05,0.1,0,4,0,0,54,54,2428,49,0,0,0,49,2428,49,151,0,,,NaN,NaN,NaN,NaN,NaN,1,2020-11-12_18h32.43.233,Pirates_expt3,02.01.20,Win32,60,NaN,,NaN,NaN,NaN,NaN,NaN,,,NaN,NaN,NaN,NaN,NaN,,,NaN,NaN,NaN,NaN,NaN,"",,,4,0,4,0,1,3,200,0,200,0,1,199,,NaN,200,0,200,0,1,199,space,0.333235,,NaN,,NaN,2
NaN,NaN,NaN,NaN,NaN,"",NaN,NaN,"",NaN,,NaN,NaN,NaN,NaN,NaN,NaN,NaN,NaN,NaN,NaN,NaN,NaN,NaN,NaN,NaN,NaN,NaN,NaN,NaN,,,NaN,NaN,NaN,NaN,,,NaN,NaN,NaN,NaN,NaN,,,,NaN,NaN,NaN,NaN,NaN,1,2020-11-12_18h32.43.233,Pirates_expt3,02.01.20,Win32,60,NaN,,NaN,NaN,NaN,NaN,NaN,,,NaN,NaN,NaN,NaN,NaN,,,NaN,NaN,NaN,NaN,NaN,"",,,NaN,NaN,NaN,NaN,NaN,NaN,NaN,NaN,NaN,NaN,NaN,NaN,,NaN,4,0,4,0,1,NaN,,NaN,,NaN,,NaN,2
NaN,NaN,NaN,NaN,NaN,"",NaN,NaN,"",NaN,,1,1,49,1,41,82,62,0.1,0.15,0.05,0.1,82,62,41,0.15,0.05,0.1,3,3,0,0,41,41,2428,49,s,0.1453,5,49,2428,49,151,0,,,NaN,NaN,NaN,NaN,NaN,1,2020-11-12_18h32.43.233,Pirates_expt3,02.01.20,Win32,60,NaN,,NaN,NaN,NaN,NaN,NaN,,,NaN,NaN,NaN,NaN,NaN,,,NaN,NaN,NaN,NaN,NaN,"",,,4,0,4,0,1,3,200,0,200,0,1,199,,NaN,200,0,200,0,1,199,,NaN,,NaN,,NaN,2
NaN,NaN,NaN,NaN,NaN,"",NaN,NaN,"",NaN,,1,1,48,1,47,84,64,0.1,0.15,0.05,0.1,84,64,47,0.15,0.05,0.1,0,4,0,0,47,41,2428,50,0,0,0,48,2428,50,150,8.927,,,NaN,NaN,NaN,NaN,NaN,1,2020-11-12_18h32.43.233,Pirates_expt3,02.01.20,Win32,60,NaN,,NaN,NaN,NaN,NaN,NaN,,,NaN,NaN,NaN,NaN,NaN,,,NaN,NaN,NaN,NaN,NaN,"",,,4,0,4,0,1,3,200,0,200,0,1,199,,NaN,200,0,200,0,1,199,s,0.1453,,NaN,,NaN,2
NaN,NaN,NaN,NaN,NaN,"",NaN,NaN,"",NaN,,NaN,NaN,NaN,NaN,NaN,NaN,NaN,NaN,NaN,NaN,NaN,NaN,NaN,NaN,NaN,NaN,NaN,NaN,NaN,,,NaN,NaN,NaN,NaN,,,NaN,NaN,NaN,NaN,NaN,,,,NaN,NaN,NaN,NaN,NaN,1,2020-11-12_18h32.43.233,Pirates_expt3,02.01.20,Win32,60,NaN,,NaN,NaN,NaN,NaN,NaN,,,NaN,NaN,NaN,NaN,NaN,,,NaN,NaN,NaN,NaN,NaN,"",,,NaN,NaN,NaN,NaN,NaN,NaN,5,0,5,0,1,NaN,,NaN,NaN,NaN,NaN,NaN,NaN,NaN,,NaN,,NaN,,NaN,2
NaN,NaN,NaN,NaN,NaN,"",NaN,NaN,"",NaN,,1,1,48,3,47,84,64,0.1,0.15,0.05,0.05,84,64,47,0.15,0.05,0.1,1,1,k,150.208,0,0,2428,51,N/A,0,0,48,2428,51,149,0,,,NaN,NaN,NaN,NaN,NaN,1,2020-11-12_18h32.43.233,Pirates_expt3,02.01.20,Win32,60,NaN,,NaN,NaN,NaN,NaN,NaN,,,NaN,NaN,NaN,NaN,NaN,,,NaN,NaN,NaN,NaN,NaN,"",,,4,0,4,0,1,3,200,0,200,0,1,199,,NaN,NaN,NaN,NaN,NaN,NaN,NaN,,NaN,,NaN,,NaN,2
NaN,NaN,NaN,NaN,NaN,"",NaN,NaN,"",NaN,,1,1,48,3,52,87,65,0.1,0.15,0.05,0.05,87,65,52,0.15,0.05,0.1,0,2,0,0,0,0,2428,51,N/A,0,0,48,2428,51,149,0,,,NaN,NaN,NaN,NaN,NaN,1,2020-11-12_18h32.43.233,Pirates_expt3,02.01.20,Win32,60,NaN,,NaN,NaN,NaN,NaN,NaN,,,NaN,NaN,NaN,NaN,NaN,,,NaN,NaN,NaN,NaN,NaN,"",,,4,0,4,0,1,3,200,0,200,0,1,199,k,150.208,NaN,NaN,NaN,NaN,NaN,NaN,,NaN,,NaN,,NaN,2
NaN,NaN,NaN,NaN,NaN,"",NaN,NaN,"",NaN,,1,1,47,3,52,87,65,0.1,0.15,0.05,0.05,87,65,52,0.15,0.05,0.1,2,3,0,0,65,65,2428,51,space,0.06696,0,47,2428,51,149,0,,,NaN,NaN,NaN,NaN,NaN,1,2020-11-12_18h32.43.233,Pirates_expt3,02.01.20,Win32,60,NaN,,NaN,NaN,NaN,NaN,NaN,,,NaN,NaN,NaN,NaN,NaN,,,NaN,NaN,NaN,NaN,NaN,"",,,4,0,4,0,1,3,200,0,200,0,1,199,,NaN,200,0,200,0,1,199,,NaN,,NaN,,NaN,2
NaN,NaN,NaN,NaN,NaN,"",NaN,NaN,"",NaN,,1,1,47,3,57,89,65,0.1,0.15,0.05,0.05,89,65,57,0.15,0.05,0.1,0,4,0,0,65,65,2494,52,0,0,0,47,2494,52,148,0,,,NaN,NaN,NaN,NaN,NaN,1,2020-11-12_18h32.43.233,Pirates_expt3,02.01.20,Win32,60,NaN,,NaN,NaN,NaN,NaN,NaN,,,NaN,NaN,NaN,NaN,NaN,,,NaN,NaN,NaN,NaN,NaN,"",,,4,0,4,0,1,3,200,0,200,0,1,199,,NaN,200,0,200,0,1,199,space,0.06696,,NaN,,NaN,2
NaN,NaN,NaN,NaN,NaN,"",NaN,NaN,"",NaN,,NaN,NaN,NaN,NaN,NaN,NaN,NaN,NaN,NaN,NaN,NaN,NaN,NaN,NaN,NaN,NaN,NaN,NaN,NaN,,,NaN,NaN,NaN,NaN,,,NaN,NaN,NaN,NaN,NaN,,,,NaN,NaN,NaN,NaN,NaN,1,2020-11-12_18h32.43.233,Pirates_expt3,02.01.20,Win32,60,NaN,,NaN,NaN,NaN,NaN,NaN,,,NaN,NaN,NaN,NaN,NaN,,,NaN,NaN,NaN,NaN,NaN,"",,,NaN,NaN,NaN,NaN,NaN,NaN,NaN,NaN,NaN,NaN,NaN,NaN,,NaN,0,0,0,0,1,NaN,,NaN,,NaN,,NaN,2
NaN,NaN,NaN,NaN,NaN,"",NaN,NaN,"",NaN,,1,1,47,3,57,89,62,0.1,0.15,0.05,0.05,89,62,57,0.15,0.05,0.1,2,3,0,0,62,62,2494,52,space,0.45064,0,47,2494,52,148,0,,,NaN,NaN,NaN,NaN,NaN,1,2020-11-12_18h32.43.233,Pirates_expt3,02.01.20,Win32,60,NaN,,NaN,NaN,NaN,NaN,NaN,,,NaN,NaN,NaN,NaN,NaN,,,NaN,NaN,NaN,NaN,NaN,"",,,4,0,4,0,1,3,200,0,200,0,1,199,,NaN,200,0,200,0,1,199,,NaN,,NaN,,NaN,2
NaN,NaN,NaN,NaN,NaN,"",NaN,NaN,"",NaN,,1,1,48,3,61,90,62,0.1,0.15,0.05,0.05,90,62,61,0.15,0.05,0.1,0,4,0,0,62,62,2557,53,0,0,0,48,2557,53,147,0,,,NaN,NaN,NaN,NaN,NaN,1,2020-11-12_18h32.43.233,Pirates_expt3,02.01.20,Win32,60,NaN,,NaN,NaN,NaN,NaN,NaN,,,NaN,NaN,NaN,NaN,NaN,,,NaN,NaN,NaN,NaN,NaN,"",,,4,0,4,0,1,3,200,0,200,0,1,199,,NaN,200,0,200,0,1,199,space,0.45064,,NaN,,NaN,2
NaN,NaN,NaN,NaN,NaN,"",NaN,NaN,"",NaN,,NaN,NaN,NaN,NaN,NaN,NaN,NaN,NaN,NaN,NaN,NaN,NaN,NaN,NaN,NaN,NaN,NaN,NaN,NaN,,,NaN,NaN,NaN,NaN,,,NaN,NaN,NaN,NaN,NaN,,,,NaN,NaN,NaN,NaN,NaN,1,2020-11-12_18h32.43.233,Pirates_expt3,02.01.20,Win32,60,NaN,,NaN,NaN,NaN,NaN,NaN,,,NaN,NaN,NaN,NaN,NaN,,,NaN,NaN,NaN,NaN,NaN,"",,,NaN,NaN,NaN,NaN,NaN,NaN,NaN,NaN,NaN,NaN,NaN,NaN,,NaN,1,0,1,0,1,NaN,,NaN,,NaN,,NaN,2
NaN,NaN,NaN,NaN,NaN,"",NaN,NaN,"",NaN,,1,1,48,3,61,90,56,0.1,0.15,0.05,0.05,90,56,61,0.15,0.05,0.1,2,3,0,0,56,56,2557,53,space,0.128575,0,48,2557,53,147,0,,,NaN,NaN,NaN,NaN,NaN,1,2020-11-12_18h32.43.233,Pirates_expt3,02.01.20,Win32,60,NaN,,NaN,NaN,NaN,NaN,NaN,,,NaN,NaN,NaN,NaN,NaN,,,NaN,NaN,NaN,NaN,NaN,"",,,4,0,4,0,1,3,200,0,200,0,1,199,,NaN,200,0,200,0,1,199,,NaN,,NaN,,NaN,2
NaN,NaN,NaN,NaN,NaN,"",NaN,NaN,"",NaN,,1,1,48,3,65,92,56,0.1,0.15,0.05,0.05,92,56,65,0.15,0.05,0.1,0,4,0,0,56,56,2613,54,0,0,0,48,2613,54,146,0,,,NaN,NaN,NaN,NaN,NaN,1,2020-11-12_18h32.43.233,Pirates_expt3,02.01.20,Win32,60,NaN,,NaN,NaN,NaN,NaN,NaN,,,NaN,NaN,NaN,NaN,NaN,,,NaN,NaN,NaN,NaN,NaN,"",,,4,0,4,0,1,3,200,0,200,0,1,199,,NaN,200,0,200,0,1,199,space,0.128575,,NaN,,NaN,2
NaN,NaN,NaN,NaN,NaN,"",NaN,NaN,"",NaN,,NaN,NaN,NaN,NaN,NaN,NaN,NaN,NaN,NaN,NaN,NaN,NaN,NaN,NaN,NaN,NaN,NaN,NaN,NaN,,,NaN,NaN,NaN,NaN,,,NaN,NaN,NaN,NaN,NaN,,,,NaN,NaN,NaN,NaN,NaN,1,2020-11-12_18h32.43.233,Pirates_expt3,02.01.20,Win32,60,NaN,,NaN,NaN,NaN,NaN,NaN,,,NaN,NaN,NaN,NaN,NaN,,,NaN,NaN,NaN,NaN,NaN,"",,,NaN,NaN,NaN,NaN,NaN,NaN,NaN,NaN,NaN,NaN,NaN,NaN,,NaN,2,0,2,0,1,NaN,,NaN,,NaN,,NaN,2
NaN,NaN,NaN,NaN,NaN,"",NaN,NaN,"",NaN,,1,1,48,3,65,92,48,0.1,0.15,0.05,0.05,92,48,65,0.15,0.05,0.1,2,3,0,0,48,48,2613,54,space,0.22376,0,48,2613,54,146,0,,,NaN,NaN,NaN,NaN,NaN,1,2020-11-12_18h32.43.233,Pirates_expt3,02.01.20,Win32,60,NaN,,NaN,NaN,NaN,NaN,NaN,,,NaN,NaN,NaN,NaN,NaN,,,NaN,NaN,NaN,NaN,NaN,"",,,4,0,4,0,1,3,200,0,200,0,1,199,,NaN,200,0,200,0,1,199,,NaN,,NaN,,NaN,2
NaN,NaN,NaN,NaN,NaN,"",NaN,NaN,"",NaN,,1,1,48,3,69,93,48,0.1,0.15,0.05,0.05,93,48,69,0.15,0.05,0.1,0,4,0,0,48,48,2662,55,0,0,0,48,2662,55,145,0,,,NaN,NaN,NaN,NaN,NaN,1,2020-11-12_18h32.43.233,Pirates_expt3,02.01.20,Win32,60,NaN,,NaN,NaN,NaN,NaN,NaN,,,NaN,NaN,NaN,NaN,NaN,,,NaN,NaN,NaN,NaN,NaN,"",,,4,0,4,0,1,3,200,0,200,0,1,199,,NaN,200,0,200,0,1,199,space,0.22376,,NaN,,NaN,2
NaN,NaN,NaN,NaN,NaN,"",NaN,NaN,"",NaN,,NaN,NaN,NaN,NaN,NaN,NaN,NaN,NaN,NaN,NaN,NaN,NaN,NaN,NaN,NaN,NaN,NaN,NaN,NaN,,,NaN,NaN,NaN,NaN,,,NaN,NaN,NaN,NaN,NaN,,,,NaN,NaN,NaN,NaN,NaN,1,2020-11-12_18h32.43.233,Pirates_expt3,02.01.20,Win32,60,NaN,,NaN,NaN,NaN,NaN,NaN,,,NaN,NaN,NaN,NaN,NaN,,,NaN,NaN,NaN,NaN,NaN,"",,,NaN,NaN,NaN,NaN,NaN,NaN,NaN,NaN,NaN,NaN,NaN,NaN,,NaN,3,0,3,0,1,NaN,,NaN,,NaN,,NaN,2
NaN,NaN,NaN,NaN,NaN,"",NaN,NaN,"",NaN,,1,1,48,3,69,93,39,0.1,0.15,0.05,0.05,93,39,69,0.15,0.05,0.1,3,3,0,0,39,39,2662,55,s,0.13563,4,48,2662,55,145,0,,,NaN,NaN,NaN,NaN,NaN,1,2020-11-12_18h32.43.233,Pirates_expt3,02.01.20,Win32,60,NaN,,NaN,NaN,NaN,NaN,NaN,,,NaN,NaN,NaN,NaN,NaN,,,NaN,NaN,NaN,NaN,NaN,"",,,4,0,4,0,1,3,200,0,200,0,1,199,,NaN,200,0,200,0,1,199,,NaN,,NaN,,NaN,2
NaN,NaN,NaN,NaN,NaN,"",NaN,NaN,"",NaN,,1,1,47,3,72,94,42,0.1,0.15,0.05,0.05,94,42,72,0.15,0.05,0.1,0,4,0,0,42,39,2662,56,0,0,0,47,2662,56,144,7.156,,,NaN,NaN,NaN,NaN,NaN,1,2020-11-12_18h32.43.233,Pirates_expt3,02.01.20,Win32,60,NaN,,NaN,NaN,NaN,NaN,NaN,,,NaN,NaN,NaN,NaN,NaN,,,NaN,NaN,NaN,NaN,NaN,"",,,4,0,4,0,1,3,200,0,200,0,1,199,,NaN,200,0,200,0,1,199,s,0.13563,,NaN,,NaN,2
NaN,NaN,NaN,NaN,NaN,"",NaN,NaN,"",NaN,,NaN,NaN,NaN,NaN,NaN,NaN,NaN,NaN,NaN,NaN,NaN,NaN,NaN,NaN,NaN,NaN,NaN,NaN,NaN,,,NaN,NaN,NaN,NaN,,,NaN,NaN,NaN,NaN,NaN,,,,NaN,NaN,NaN,NaN,NaN,1,2020-11-12_18h32.43.233,Pirates_expt3,02.01.20,Win32,60,NaN,,NaN,NaN,NaN,NaN,NaN,,,NaN,NaN,NaN,NaN,NaN,,,NaN,NaN,NaN,NaN,NaN,"",,,NaN,NaN,NaN,NaN,NaN,NaN,6,0,6,0,1,NaN,,NaN,NaN,NaN,NaN,NaN,NaN,NaN,,NaN,,NaN,,NaN,2
NaN,NaN,NaN,NaN,NaN,"",NaN,NaN,"",NaN,,1,1,47,1,72,94,42,0.1,0.15,0.05,0.1,94,42,72,0.15,0.05,0.1,1,1,f,1.087.065,0,0,2662,57,N/A,0,0,47,2662,57,143,0,,,NaN,NaN,NaN,NaN,NaN,1,2020-11-12_18h32.43.233,Pirates_expt3,02.01.20,Win32,60,NaN,,NaN,NaN,NaN,NaN,NaN,,,NaN,NaN,NaN,NaN,NaN,,,NaN,NaN,NaN,NaN,NaN,"",,,4,0,4,0,1,3,200,0,200,0,1,199,,NaN,NaN,NaN,NaN,NaN,NaN,NaN,,NaN,,NaN,,NaN,2
NaN,NaN,NaN,NaN,NaN,"",NaN,NaN,"",NaN,,1,1,47,1,74,95,45,0.1,0.15,0.05,0.1,95,45,74,0.15,0.05,0.1,0,2,0,0,0,0,2662,57,N/A,0,0,47,2662,57,143,0,,,NaN,NaN,NaN,NaN,NaN,1,2020-11-12_18h32.43.233,Pirates_expt3,02.01.20,Win32,60,NaN,,NaN,NaN,NaN,NaN,NaN,,,NaN,NaN,NaN,NaN,NaN,,,NaN,NaN,NaN,NaN,NaN,"",,,4,0,4,0,1,3,200,0,200,0,1,199,f,1.087,0.065,NaN,NaN,NaN,NaN,NaN,,NaN,,NaN,,NaN,2
NaN,NaN,NaN,NaN,NaN,"",NaN,NaN,"",NaN,,1,1,46,1,74,95,45,0.1,0.15,0.05,0.1,95,45,74,0.15,0.05,0.1,2,3,0,0,74,74,2662,57,space,0.028785,0,46,2662,57,143,0,,,NaN,NaN,NaN,NaN,NaN,1,2020-11-12_18h32.43.233,Pirates_expt3,02.01.20,Win32,60,NaN,,NaN,NaN,NaN,NaN,NaN,,,NaN,NaN,NaN,NaN,NaN,,,NaN,NaN,NaN,NaN,NaN,"",,,4,0,4,0,1,3,200,0,200,0,1,199,,NaN,200,0,200,0,1,199,,NaN,,NaN,,NaN,2
NaN,NaN,NaN,NaN,NaN,"",NaN,NaN,"",NaN,,1,1,47,1,74,95,48,0.1,0.15,0.05,0.1,95,48,74,0.15,0.05,0.1,0,4,0,0,74,74,2737,58,0,0,0,47,2737,58,142,0,,,NaN,NaN,NaN,NaN,NaN,1,2020-11-12_18h32.43.233,Pirates_expt3,02.01.20,Win32,60,NaN,,NaN,NaN,NaN,NaN,NaN,,,NaN,NaN,NaN,NaN,NaN,,,NaN,NaN,NaN,NaN,NaN,"",,,4,0,4,0,1,3,200,0,200,0,1,199,,NaN,200,0,200,0,1,199,space,0.028785,,NaN,,NaN,2
NaN,NaN,NaN,NaN,NaN,"",NaN,NaN,"",NaN,,NaN,NaN,NaN,NaN,NaN,NaN,NaN,NaN,NaN,NaN,NaN,NaN,NaN,NaN,NaN,NaN,NaN,NaN,NaN,,,NaN,NaN,NaN,NaN,,,NaN,NaN,NaN,NaN,NaN,,,,NaN,NaN,NaN,NaN,NaN,1,2020-11-12_18h32.43.233,Pirates_expt3,02.01.20,Win32,60,NaN,,NaN,NaN,NaN,NaN,NaN,,,NaN,NaN,NaN,NaN,NaN,,,NaN,NaN,NaN,NaN,NaN,"",,,NaN,NaN,NaN,NaN,NaN,NaN,NaN,NaN,NaN,NaN,NaN,NaN,,NaN,0,0,0,0,1,NaN,,NaN,,NaN,,NaN,2
NaN,NaN,NaN,NaN,NaN,"",NaN,NaN,"",NaN,,1,1,47,1,71,95,48,0.1,0.15,0.05,0.1,95,48,71,0.15,0.05,0.1,2,3,0,0,71,71,2737,58,space,0.338545,0,47,2737,58,142,0,,,NaN,NaN,NaN,NaN,NaN,1,2020-11-12_18h32.43.233,Pirates_expt3,02.01.20,Win32,60,NaN,,NaN,NaN,NaN,NaN,NaN,,,NaN,NaN,NaN,NaN,NaN,,,NaN,NaN,NaN,NaN,NaN,"",,,4,0,4,0,1,3,200,0,200,0,1,199,,NaN,200,0,200,0,1,199,,NaN,,NaN,,NaN,2
NaN,NaN,NaN,NaN,NaN,"",NaN,NaN,"",NaN,,1,1,47,1,71,96,50,0.1,0.15,0.05,0.1,96,50,71,0.15,0.05,0.1,0,4,0,0,71,71,2808,59,0,0,0,47,2808,59,141,0,,,NaN,NaN,NaN,NaN,NaN,1,2020-11-12_18h32.43.233,Pirates_expt3,02.01.20,Win32,60,NaN,,NaN,NaN,NaN,NaN,NaN,,,NaN,NaN,NaN,NaN,NaN,,,NaN,NaN,NaN,NaN,NaN,"",,,4,0,4,0,1,3,200,0,200,0,1,199,,NaN,200,0,200,0,1,199,space,0.338545,,NaN,,NaN,2
NaN,NaN,NaN,NaN,NaN,"",NaN,NaN,"",NaN,,NaN,NaN,NaN,NaN,NaN,NaN,NaN,NaN,NaN,NaN,NaN,NaN,NaN,NaN,NaN,NaN,NaN,NaN,NaN,,,NaN,NaN,NaN,NaN,,,NaN,NaN,NaN,NaN,NaN,,,,NaN,NaN,NaN,NaN,NaN,1,2020-11-12_18h32.43.233,Pirates_expt3,02.01.20,Win32,60,NaN,,NaN,NaN,NaN,NaN,NaN,,,NaN,NaN,NaN,NaN,NaN,,,NaN,NaN,NaN,NaN,NaN,"",,,NaN,NaN,NaN,NaN,NaN,NaN,NaN,NaN,NaN,NaN,NaN,NaN,,NaN,1,0,1,0,1,NaN,,NaN,,NaN,,NaN,2
NaN,NaN,NaN,NaN,NaN,"",NaN,NaN,"",NaN,,1,1,47,1,64,96,50,0.1,0.15,0.05,0.1,96,50,64,0.15,0.05,0.1,2,3,0,0,64,64,2808,59,space,0.348995,0,47,2808,59,141,0,,,NaN,NaN,NaN,NaN,NaN,1,2020-11-12_18h32.43.233,Pirates_expt3,02.01.20,Win32,60,NaN,,NaN,NaN,NaN,NaN,NaN,,,NaN,NaN,NaN,NaN,NaN,,,NaN,NaN,NaN,NaN,NaN,"",,,4,0,4,0,1,3,200,0,200,0,1,199,,NaN,200,0,200,0,1,199,,NaN,,NaN,,NaN,2
NaN,NaN,NaN,NaN,NaN,"",NaN,NaN,"",NaN,,1,1,47,1,64,97,53,0.1,0.15,0.05,0.1,97,53,64,0.15,0.05,0.1,0,4,0,0,64,64,2872,60,0,0,0,47,2872,60,140,0,,,NaN,NaN,NaN,NaN,NaN,1,2020-11-12_18h32.43.233,Pirates_expt3,02.01.20,Win32,60,NaN,,NaN,NaN,NaN,NaN,NaN,,,NaN,NaN,NaN,NaN,NaN,,,NaN,NaN,NaN,NaN,NaN,"",,,4,0,4,0,1,3,200,0,200,0,1,199,,NaN,200,0,200,0,1,199,space,0.348995,,NaN,,NaN,2
NaN,NaN,NaN,NaN,NaN,"",NaN,NaN,"",NaN,,NaN,NaN,NaN,NaN,NaN,NaN,NaN,NaN,NaN,NaN,NaN,NaN,NaN,NaN,NaN,NaN,NaN,NaN,NaN,,,NaN,NaN,NaN,NaN,,,NaN,NaN,NaN,NaN,NaN,,,,NaN,NaN,NaN,NaN,NaN,1,2020-11-12_18h32.43.233,Pirates_expt3,02.01.20,Win32,60,NaN,,NaN,NaN,NaN,NaN,NaN,,,NaN,NaN,NaN,NaN,NaN,,,NaN,NaN,NaN,NaN,NaN,"",,,NaN,NaN,NaN,NaN,NaN,NaN,NaN,NaN,NaN,NaN,NaN,NaN,,NaN,2,0,2,0,1,NaN,,NaN,,NaN,,NaN,2
NaN,NaN,NaN,NaN,NaN,"",NaN,NaN,"",NaN,,1,1,47,1,55,97,53,0.1,0.15,0.05,0.1,97,53,55,0.15,0.05,0.1,2,3,0,0,55,55,2872,60,space,0.30998,0,47,2872,60,140,0,,,NaN,NaN,NaN,NaN,NaN,1,2020-11-12_18h32.43.233,Pirates_expt3,02.01.20,Win32,60,NaN,,NaN,NaN,NaN,NaN,NaN,,,NaN,NaN,NaN,NaN,NaN,,,NaN,NaN,NaN,NaN,NaN,"",,,4,0,4,0,1,3,200,0,200,0,1,199,,NaN,200,0,200,0,1,199,,NaN,,NaN,,NaN,2
NaN,NaN,NaN,NaN,NaN,"",NaN,NaN,"",NaN,,1,1,47,1,55,97,55,0.1,0.15,0.05,0.1,97,55,55,0.15,0.05,0.1,0,4,0,0,55,55,2927,61,0,0,0,47,2927,61,139,0,,,NaN,NaN,NaN,NaN,NaN,1,2020-11-12_18h32.43.233,Pirates_expt3,02.01.20,Win32,60,NaN,,NaN,NaN,NaN,NaN,NaN,,,NaN,NaN,NaN,NaN,NaN,,,NaN,NaN,NaN,NaN,NaN,"",,,4,0,4,0,1,3,200,0,200,0,1,199,,NaN,200,0,200,0,1,199,space,0.30998,,NaN,,NaN,2
NaN,NaN,NaN,NaN,NaN,"",NaN,NaN,"",NaN,,NaN,NaN,NaN,NaN,NaN,NaN,NaN,NaN,NaN,NaN,NaN,NaN,NaN,NaN,NaN,NaN,NaN,NaN,NaN,,,NaN,NaN,NaN,NaN,,,NaN,NaN,NaN,NaN,NaN,,,,NaN,NaN,NaN,NaN,NaN,1,2020-11-12_18h32.43.233,Pirates_expt3,02.01.20,Win32,60,NaN,,NaN,NaN,NaN,NaN,NaN,,,NaN,NaN,NaN,NaN,NaN,,,NaN,NaN,NaN,NaN,NaN,"",,,NaN,NaN,NaN,NaN,NaN,NaN,NaN,NaN,NaN,NaN,NaN,NaN,,NaN,3,0,3,0,1,NaN,,NaN,,NaN,,NaN,2
NaN,NaN,NaN,NaN,NaN,"",NaN,NaN,"",NaN,,1,1,47,1,44,97,55,0.1,0.15,0.05,0.1,97,55,44,0.15,0.05,0.1,3,3,0,0,44,44,2927,61,s,0.972555,4,47,2927,61,139,0,,,NaN,NaN,NaN,NaN,NaN,1,2020-11-12_18h32.43.233,Pirates_expt3,02.01.20,Win32,60,NaN,,NaN,NaN,NaN,NaN,NaN,,,NaN,NaN,NaN,NaN,NaN,,,NaN,NaN,NaN,NaN,NaN,"",,,4,0,4,0,1,3,200,0,200,0,1,199,,NaN,200,0,200,0,1,199,,NaN,,NaN,,NaN,2
NaN,NaN,NaN,NaN,NaN,"",NaN,NaN,"",NaN,,1,1,47,1,50,97,57,0.1,0.15,0.05,0.1,97,57,50,0.15,0.05,0.1,0,4,0,0,50,44,2927,62,0,0,0,47,2927,62,138,8.127,,,NaN,NaN,NaN,NaN,NaN,1,2020-11-12_18h32.43.233,Pirates_expt3,02.01.20,Win32,60,NaN,,NaN,NaN,NaN,NaN,NaN,,,NaN,NaN,NaN,NaN,NaN,,,NaN,NaN,NaN,NaN,NaN,"",,,4,0,4,0,1,3,200,0,200,0,1,199,,NaN,200,0,200,0,1,199,s,0.972555,,NaN,,NaN,2
NaN,NaN,NaN,NaN,NaN,"",NaN,NaN,"",NaN,,NaN,NaN,NaN,NaN,NaN,NaN,NaN,NaN,NaN,NaN,NaN,NaN,NaN,NaN,NaN,NaN,NaN,NaN,NaN,,,NaN,NaN,NaN,NaN,,,NaN,NaN,NaN,NaN,NaN,,,,NaN,NaN,NaN,NaN,NaN,1,2020-11-12_18h32.43.233,Pirates_expt3,02.01.20,Win32,60,NaN,,NaN,NaN,NaN,NaN,NaN,,,NaN,NaN,NaN,NaN,NaN,,,NaN,NaN,NaN,NaN,NaN,"",,,NaN,NaN,NaN,NaN,NaN,NaN,7,0,7,0,1,NaN,,NaN,NaN,NaN,NaN,NaN,NaN,NaN,,NaN,,NaN,,NaN,2
NaN,NaN,NaN,NaN,NaN,"",NaN,NaN,"",NaN,,1,1,47,3,50,97,57,0.1,0.15,0.05,0.05,97,57,50,0.15,0.05,0.1,1,1,k,203.853,0,0,2927,63,N/A,0,0,47,2927,63,137,0,,,NaN,NaN,NaN,NaN,NaN,1,2020-11-12_18h32.43.233,Pirates_expt3,02.01.20,Win32,60,NaN,,NaN,NaN,NaN,NaN,NaN,,,NaN,NaN,NaN,NaN,NaN,,,NaN,NaN,NaN,NaN,NaN,"",,,4,0,4,0,1,3,200,0,200,0,1,199,,NaN,NaN,NaN,NaN,NaN,NaN,NaN,,NaN,,NaN,,NaN,2
NaN,NaN,NaN,NaN,NaN,"",NaN,NaN,"",NaN,,1,1,47,3,55,98,59,0.1,0.15,0.05,0.05,98,59,55,0.15,0.05,0.1,0,2,0,0,0,0,2927,63,N/A,0,0,47,2927,63,137,0,,,NaN,NaN,NaN,NaN,NaN,1,2020-11-12_18h32.43.233,Pirates_expt3,02.01.20,Win32,60,NaN,,NaN,NaN,NaN,NaN,NaN,,,NaN,NaN,NaN,NaN,NaN,,,NaN,NaN,NaN,NaN,NaN,"",,,4,0,4,0,1,3,200,0,200,0,1,199,k,203.853,NaN,NaN,NaN,NaN,NaN,NaN,,NaN,,NaN,,NaN,2
NaN,NaN,NaN,NaN,NaN,"",NaN,NaN,"",NaN,,1,1,46,3,55,98,59,0.1,0.15,0.05,0.05,98,59,55,0.15,0.05,0.1,2,3,0,0,59,59,2927,63,space,0.32933,0,46,2927,63,137,0,,,NaN,NaN,NaN,NaN,NaN,1,2020-11-12_18h32.43.233,Pirates_expt3,02.01.20,Win32,60,NaN,,NaN,NaN,NaN,NaN,NaN,,,NaN,NaN,NaN,NaN,NaN,,,NaN,NaN,NaN,NaN,NaN,"",,,4,0,4,0,1,3,200,0,200,0,1,199,,NaN,200,0,200,0,1,199,,NaN,,NaN,,NaN,2
NaN,NaN,NaN,NaN,NaN,"",NaN,NaN,"",NaN,,1,1,46,3,59,98,59,0.1,0.15,0.05,0.05,98,59,59,0.15,0.05,0.1,0,4,0,0,59,59,2987,64,0,0,0,46,2987,64,136,0,,,NaN,NaN,NaN,NaN,NaN,1,2020-11-12_18h32.43.233,Pirates_expt3,02.01.20,Win32,60,NaN,,NaN,NaN,NaN,NaN,NaN,,,NaN,NaN,NaN,NaN,NaN,,,NaN,NaN,NaN,NaN,NaN,"",,,4,0,4,0,1,3,200,0,200,0,1,199,,NaN,200,0,200,0,1,199,space,0.32933,,NaN,,NaN,2
NaN,NaN,NaN,NaN,NaN,"",NaN,NaN,"",NaN,,NaN,NaN,NaN,NaN,NaN,NaN,NaN,NaN,NaN,NaN,NaN,NaN,NaN,NaN,NaN,NaN,NaN,NaN,NaN,,,NaN,NaN,NaN,NaN,,,NaN,NaN,NaN,NaN,NaN,,,,NaN,NaN,NaN,NaN,NaN,1,2020-11-12_18h32.43.233,Pirates_expt3,02.01.20,Win32,60,NaN,,NaN,NaN,NaN,NaN,NaN,,,NaN,NaN,NaN,NaN,NaN,,,NaN,NaN,NaN,NaN,NaN,"",,,NaN,NaN,NaN,NaN,NaN,NaN,NaN,NaN,NaN,NaN,NaN,NaN,,NaN,0,0,0,0,1,NaN,,NaN,,NaN,,NaN,2
NaN,NaN,NaN,NaN,NaN,"",NaN,NaN,"",NaN,,1,1,46,3,59,98,56,0.1,0.15,0.05,0.05,98,56,59,0.15,0.05,0.1,2,3,0,0,56,56,2987,64,space,0.315815,0,46,2987,64,136,0,,,NaN,NaN,NaN,NaN,NaN,1,2020-11-12_18h32.43.233,Pirates_expt3,02.01.20,Win32,60,NaN,,NaN,NaN,NaN,NaN,NaN,,,NaN,NaN,NaN,NaN,NaN,,,NaN,NaN,NaN,NaN,NaN,"",,,4,0,4,0,1,3,200,0,200,0,1,199,,NaN,200,0,200,0,1,199,,NaN,,NaN,,NaN,2
NaN,NaN,NaN,NaN,NaN,"",NaN,NaN,"",NaN,,1,1,46,3,63,98,56,0.1,0.15,0.05,0.05,98,56,63,0.15,0.05,0.1,0,4,0,0,56,56,3044,65,0,0,0,46,3044,65,135,0,,,NaN,NaN,NaN,NaN,NaN,1,2020-11-12_18h32.43.233,Pirates_expt3,02.01.20,Win32,60,NaN,,NaN,NaN,NaN,NaN,NaN,,,NaN,NaN,NaN,NaN,NaN,,,NaN,NaN,NaN,NaN,NaN,"",,,4,0,4,0,1,3,200,0,200,0,1,199,,NaN,200,0,200,0,1,199,space,0.315815,,NaN,,NaN,2
NaN,NaN,NaN,NaN,NaN,"",NaN,NaN,"",NaN,,NaN,NaN,NaN,NaN,NaN,NaN,NaN,NaN,NaN,NaN,NaN,NaN,NaN,NaN,NaN,NaN,NaN,NaN,NaN,,,NaN,NaN,NaN,NaN,,,NaN,NaN,NaN,NaN,NaN,,,,NaN,NaN,NaN,NaN,NaN,1,2020-11-12_18h32.43.233,Pirates_expt3,02.01.20,Win32,60,NaN,,NaN,NaN,NaN,NaN,NaN,,,NaN,NaN,NaN,NaN,NaN,,,NaN,NaN,NaN,NaN,NaN,"",,,NaN,NaN,NaN,NaN,NaN,NaN,NaN,NaN,NaN,NaN,NaN,NaN,,NaN,1,0,1,0,1,NaN,,NaN,,NaN,,NaN,2
NaN,NaN,NaN,NaN,NaN,"",NaN,NaN,"",NaN,,1,1,46,3,63,98,51,0.1,0.15,0.05,0.05,98,51,63,0.15,0.05,0.1,3,3,0,0,51,51,3044,65,s,0.376365,2,46,3044,65,135,0,,,NaN,NaN,NaN,NaN,NaN,1,2020-11-12_18h32.43.233,Pirates_expt3,02.01.20,Win32,60,NaN,,NaN,NaN,NaN,NaN,NaN,,,NaN,NaN,NaN,NaN,NaN,,,NaN,NaN,NaN,NaN,NaN,"",,,4,0,4,0,1,3,200,0,200,0,1,199,,NaN,200,0,200,0,1,199,,NaN,,NaN,,NaN,2
NaN,NaN,NaN,NaN,NaN,"",NaN,NaN,"",NaN,,1,1,46,3,67,98,53,0.1,0.15,0.05,0.05,98,53,67,0.15,0.05,0.1,0,4,0,0,53,51,3044,66,0,0,0,46,3044,66,134,4.104,,,NaN,NaN,NaN,NaN,NaN,1,2020-11-12_18h32.43.233,Pirates_expt3,02.01.20,Win32,60,NaN,,NaN,NaN,NaN,NaN,NaN,,,NaN,NaN,NaN,NaN,NaN,,,NaN,NaN,NaN,NaN,NaN,"",,,4,0,4,0,1,3,200,0,200,0,1,199,,NaN,200,0,200,0,1,199,s,0.376365,,NaN,,NaN,2
NaN,NaN,NaN,NaN,NaN,"",NaN,NaN,"",NaN,,NaN,NaN,NaN,NaN,NaN,NaN,NaN,NaN,NaN,NaN,NaN,NaN,NaN,NaN,NaN,NaN,NaN,NaN,NaN,,,NaN,NaN,NaN,NaN,,,NaN,NaN,NaN,NaN,NaN,,,,NaN,NaN,NaN,NaN,NaN,1,2020-11-12_18h32.43.233,Pirates_expt3,02.01.20,Win32,60,NaN,,NaN,NaN,NaN,NaN,NaN,,,NaN,NaN,NaN,NaN,NaN,,,NaN,NaN,NaN,NaN,NaN,"",,,NaN,NaN,NaN,NaN,NaN,NaN,8,0,8,0,1,NaN,,NaN,NaN,NaN,NaN,NaN,NaN,NaN,,NaN,,NaN,,NaN,2
NaN,NaN,NaN,NaN,NaN,"",NaN,NaN,"",NaN,,1,1,46,2,67,98,53,0.1,0.15,0.05,0.15,98,53,67,0.15,0.05,0.1,1,1,j,1.256.665,0,0,3044,67,N/A,0,0,46,3044,67,133,0,,,NaN,NaN,NaN,NaN,NaN,1,2020-11-12_18h32.43.233,Pirates_expt3,02.01.20,Win32,60,NaN,,NaN,NaN,NaN,NaN,NaN,,,NaN,NaN,NaN,NaN,NaN,,,NaN,NaN,NaN,NaN,NaN,"",,,4,0,4,0,1,3,200,0,200,0,1,199,,NaN,NaN,NaN,NaN,NaN,NaN,NaN,,NaN,,NaN,,NaN,2
NaN,NaN,NaN,NaN,NaN,"",NaN,NaN,"",NaN,,1,1,46,2,70,99,56,0.1,0.15,0.05,0.15,99,56,70,0.15,0.05,0.1,0,2,0,0,0,0,3044,67,N/A,0,0,46,3044,67,133,0,,,NaN,NaN,NaN,NaN,NaN,1,2020-11-12_18h32.43.233,Pirates_expt3,02.01.20,Win32,60,NaN,,NaN,NaN,NaN,NaN,NaN,,,NaN,NaN,NaN,NaN,NaN,,,NaN,NaN,NaN,NaN,NaN,"",,,4,0,4,0,1,3,200,0,200,0,1,199,j,1.256,0.665,NaN,NaN,NaN,NaN,NaN,,NaN,,NaN,,NaN,2
NaN,NaN,NaN,NaN,NaN,"",NaN,NaN,"",NaN,,1,1,45,2,70,99,56,0.1,0.15,0.05,0.15,99,56,70,0.15,0.05,0.1,2,3,0,0,99,99,3044,67,space,0.346265,0,45,3044,67,133,0,,,NaN,NaN,NaN,NaN,NaN,1,2020-11-12_18h32.43.233,Pirates_expt3,02.01.20,Win32,60,NaN,,NaN,NaN,NaN,NaN,NaN,,,NaN,NaN,NaN,NaN,NaN,,,NaN,NaN,NaN,NaN,NaN,"",,,4,0,4,0,1,3,200,0,200,0,1,199,,NaN,200,0,200,0,1,199,,NaN,,NaN,,NaN,2
NaN,NaN,NaN,NaN,NaN,"",NaN,NaN,"",NaN,,1,1,46,2,73,99,58,0.1,0.15,0.05,0.15,99,58,73,0.15,0.05,0.1,0,4,0,0,99,99,3143,68,0,0,0,46,3143,68,132,0,,,NaN,NaN,NaN,NaN,NaN,1,2020-11-12_18h32.43.233,Pirates_expt3,02.01.20,Win32,60,NaN,,NaN,NaN,NaN,NaN,NaN,,,NaN,NaN,NaN,NaN,NaN,,,NaN,NaN,NaN,NaN,NaN,"",,,4,0,4,0,1,3,200,0,200,0,1,199,,NaN,200,0,200,0,1,199,space,0.346265,,NaN,,NaN,2
NaN,NaN,NaN,NaN,NaN,"",NaN,NaN,"",NaN,,NaN,NaN,NaN,NaN,NaN,NaN,NaN,NaN,NaN,NaN,NaN,NaN,NaN,NaN,NaN,NaN,NaN,NaN,NaN,,,NaN,NaN,NaN,NaN,,,NaN,NaN,NaN,NaN,NaN,,,,NaN,NaN,NaN,NaN,NaN,1,2020-11-12_18h32.43.233,Pirates_expt3,02.01.20,Win32,60,NaN,,NaN,NaN,NaN,NaN,NaN,,,NaN,NaN,NaN,NaN,NaN,,,NaN,NaN,NaN,NaN,NaN,"",,,NaN,NaN,NaN,NaN,NaN,NaN,NaN,NaN,NaN,NaN,NaN,NaN,,NaN,0,0,0,0,1,NaN,,NaN,,NaN,,NaN,2
NaN,NaN,NaN,NaN,NaN,"",NaN,NaN,"",NaN,,1,1,46,2,73,94,58,0.1,0.15,0.05,0.15,94,58,73,0.15,0.05,0.1,2,3,0,0,94,94,3143,68,space,0.11272,0,46,3143,68,132,0,,,NaN,NaN,NaN,NaN,NaN,1,2020-11-12_18h32.43.233,Pirates_expt3,02.01.20,Win32,60,NaN,,NaN,NaN,NaN,NaN,NaN,,,NaN,NaN,NaN,NaN,NaN,,,NaN,NaN,NaN,NaN,NaN,"",,,4,0,4,0,1,3,200,0,200,0,1,199,,NaN,200,0,200,0,1,199,,NaN,,NaN,,NaN,2
NaN,NaN,NaN,NaN,NaN,"",NaN,NaN,"",NaN,,1,1,46,2,76,94,60,0.1,0.15,0.05,0.15,94,60,76,0.15,0.05,0.1,0,4,0,0,94,94,3237,69,0,0,0,46,3237,69,131,0,,,NaN,NaN,NaN,NaN,NaN,1,2020-11-12_18h32.43.233,Pirates_expt3,02.01.20,Win32,60,NaN,,NaN,NaN,NaN,NaN,NaN,,,NaN,NaN,NaN,NaN,NaN,,,NaN,NaN,NaN,NaN,NaN,"",,,4,0,4,0,1,3,200,0,200,0,1,199,,NaN,200,0,200,0,1,199,space,0.11272,,NaN,,NaN,2
NaN,NaN,NaN,NaN,NaN,"",NaN,NaN,"",NaN,,NaN,NaN,NaN,NaN,NaN,NaN,NaN,NaN,NaN,NaN,NaN,NaN,NaN,NaN,NaN,NaN,NaN,NaN,NaN,,,NaN,NaN,NaN,NaN,,,NaN,NaN,NaN,NaN,NaN,,,,NaN,NaN,NaN,NaN,NaN,1,2020-11-12_18h32.43.233,Pirates_expt3,02.01.20,Win32,60,NaN,,NaN,NaN,NaN,NaN,NaN,,,NaN,NaN,NaN,NaN,NaN,,,NaN,NaN,NaN,NaN,NaN,"",,,NaN,NaN,NaN,NaN,NaN,NaN,NaN,NaN,NaN,NaN,NaN,NaN,,NaN,1,0,1,0,1,NaN,,NaN,,NaN,,NaN,2
NaN,NaN,NaN,NaN,NaN,"",NaN,NaN,"",NaN,,1,1,46,2,76,84,60,0.1,0.15,0.05,0.15,84,60,76,0.15,0.05,0.1,2,3,0,0,84,84,3237,69,space,0.070145,0,46,3237,69,131,0,,,NaN,NaN,NaN,NaN,NaN,1,2020-11-12_18h32.43.233,Pirates_expt3,02.01.20,Win32,60,NaN,,NaN,NaN,NaN,NaN,NaN,,,NaN,NaN,NaN,NaN,NaN,,,NaN,NaN,NaN,NaN,NaN,"",,,4,0,4,0,1,3,200,0,200,0,1,199,,NaN,200,0,200,0,1,199,,NaN,,NaN,,NaN,2
NaN,NaN,NaN,NaN,NaN,"",NaN,NaN,"",NaN,,1,1,47,2,78,84,62,0.1,0.15,0.05,0.15,84,62,78,0.15,0.05,0.1,0,4,0,0,84,84,3322,70,0,0,0,47,3322,70,130,0,,,NaN,NaN,NaN,NaN,NaN,1,2020-11-12_18h32.43.233,Pirates_expt3,02.01.20,Win32,60,NaN,,NaN,NaN,NaN,NaN,NaN,,,NaN,NaN,NaN,NaN,NaN,,,NaN,NaN,NaN,NaN,NaN,"",,,4,0,4,0,1,3,200,0,200,0,1,199,,NaN,200,0,200,0,1,199,space,0.070145,,NaN,,NaN,2
NaN,NaN,NaN,NaN,NaN,"",NaN,NaN,"",NaN,,NaN,NaN,NaN,NaN,NaN,NaN,NaN,NaN,NaN,NaN,NaN,NaN,NaN,NaN,NaN,NaN,NaN,NaN,NaN,,,NaN,NaN,NaN,NaN,,,NaN,NaN,NaN,NaN,NaN,,,,NaN,NaN,NaN,NaN,NaN,1,2020-11-12_18h32.43.233,Pirates_expt3,02.01.20,Win32,60,NaN,,NaN,NaN,NaN,NaN,NaN,,,NaN,NaN,NaN,NaN,NaN,,,NaN,NaN,NaN,NaN,NaN,"",,,NaN,NaN,NaN,NaN,NaN,NaN,NaN,NaN,NaN,NaN,NaN,NaN,,NaN,2,0,2,0,1,NaN,,NaN,,NaN,,NaN,2
NaN,NaN,NaN,NaN,NaN,"",NaN,NaN,"",NaN,,1,1,47,2,78,72,62,0.1,0.15,0.05,0.15,72,62,78,0.15,0.05,0.1,2,3,0,0,72,72,3322,70,space,0.19771,0,47,3322,70,130,0,,,NaN,NaN,NaN,NaN,NaN,1,2020-11-12_18h32.43.233,Pirates_expt3,02.01.20,Win32,60,NaN,,NaN,NaN,NaN,NaN,NaN,,,NaN,NaN,NaN,NaN,NaN,,,NaN,NaN,NaN,NaN,NaN,"",,,4,0,4,0,1,3,200,0,200,0,1,199,,NaN,200,0,200,0,1,199,,NaN,,NaN,,NaN,2
NaN,NaN,NaN,NaN,NaN,"",NaN,NaN,"",NaN,,1,1,47,2,80,72,64,0.1,0.15,0.05,0.15,72,64,80,0.15,0.05,0.1,0,4,0,0,72,72,3395,71,0,0,0,47,3395,71,129,0,,,NaN,NaN,NaN,NaN,NaN,1,2020-11-12_18h32.43.233,Pirates_expt3,02.01.20,Win32,60,NaN,,NaN,NaN,NaN,NaN,NaN,,,NaN,NaN,NaN,NaN,NaN,,,NaN,NaN,NaN,NaN,NaN,"",,,4,0,4,0,1,3,200,0,200,0,1,199,,NaN,200,0,200,0,1,199,space,0.19771,,NaN,,NaN,2
NaN,NaN,NaN,NaN,NaN,"",NaN,NaN,"",NaN,,NaN,NaN,NaN,NaN,NaN,NaN,NaN,NaN,NaN,NaN,NaN,NaN,NaN,NaN,NaN,NaN,NaN,NaN,NaN,,,NaN,NaN,NaN,NaN,,,NaN,NaN,NaN,NaN,NaN,,,,NaN,NaN,NaN,NaN,NaN,1,2020-11-12_18h32.43.233,Pirates_expt3,02.01.20,Win32,60,NaN,,NaN,NaN,NaN,NaN,NaN,,,NaN,NaN,NaN,NaN,NaN,,,NaN,NaN,NaN,NaN,NaN,"",,,NaN,NaN,NaN,NaN,NaN,NaN,NaN,NaN,NaN,NaN,NaN,NaN,,NaN,3,0,3,0,1,NaN,,NaN,,NaN,,NaN,2
NaN,NaN,NaN,NaN,NaN,"",NaN,NaN,"",NaN,,1,1,47,2,80,59,64,0.1,0.15,0.05,0.15,59,64,80,0.15,0.05,0.1,2,3,0,0,59,59,3395,71,space,0.1946,0,47,3395,71,129,0,,,NaN,NaN,NaN,NaN,NaN,1,2020-11-12_18h32.43.233,Pirates_expt3,02.01.20,Win32,60,NaN,,NaN,NaN,NaN,NaN,NaN,,,NaN,NaN,NaN,NaN,NaN,,,NaN,NaN,NaN,NaN,NaN,"",,,4,0,4,0,1,3,200,0,200,0,1,199,,NaN,200,0,200,0,1,199,,NaN,,NaN,,NaN,2
NaN,NaN,NaN,NaN,NaN,"",NaN,NaN,"",NaN,,1,1,47,2,82,59,65,0.1,0.15,0.05,0.15,59,65,82,0.15,0.05,0.1,0,4,0,0,59,59,3454,72,0,0,0,47,3454,72,128,0,,,NaN,NaN,NaN,NaN,NaN,1,2020-11-12_18h32.43.233,Pirates_expt3,02.01.20,Win32,60,NaN,,NaN,NaN,NaN,NaN,NaN,,,NaN,NaN,NaN,NaN,NaN,,,NaN,NaN,NaN,NaN,NaN,"",,,4,0,4,0,1,3,200,0,200,0,1,199,,NaN,200,0,200,0,1,199,space,0.1946,,NaN,,NaN,2
NaN,NaN,NaN,NaN,NaN,"",NaN,NaN,"",NaN,,NaN,NaN,NaN,NaN,NaN,NaN,NaN,NaN,NaN,NaN,NaN,NaN,NaN,NaN,NaN,NaN,NaN,NaN,NaN,,,NaN,NaN,NaN,NaN,,,NaN,NaN,NaN,NaN,NaN,,,,NaN,NaN,NaN,NaN,NaN,1,2020-11-12_18h32.43.233,Pirates_expt3,02.01.20,Win32,60,NaN,,NaN,NaN,NaN,NaN,NaN,,,NaN,NaN,NaN,NaN,NaN,,,NaN,NaN,NaN,NaN,NaN,"",,,NaN,NaN,NaN,NaN,NaN,NaN,NaN,NaN,NaN,NaN,NaN,NaN,,NaN,4,0,4,0,1,NaN,,NaN,,NaN,,NaN,2
NaN,NaN,NaN,NaN,NaN,"",NaN,NaN,"",NaN,,1,1,47,2,82,45,65,0.1,0.15,0.05,0.15,45,65,82,0.15,0.05,0.1,2,3,0,0,45,45,3454,72,space,0.278255,0,47,3454,72,128,0,,,NaN,NaN,NaN,NaN,NaN,1,2020-11-12_18h32.43.233,Pirates_expt3,02.01.20,Win32,60,NaN,,NaN,NaN,NaN,NaN,NaN,,,NaN,NaN,NaN,NaN,NaN,,,NaN,NaN,NaN,NaN,NaN,"",,,4,0,4,0,1,3,200,0,200,0,1,199,,NaN,200,0,200,0,1,199,,NaN,,NaN,,NaN,2
NaN,NaN,NaN,NaN,NaN,"",NaN,NaN,"",NaN,,1,1,47,2,84,45,67,0.1,0.15,0.05,0.15,45,67,84,0.15,0.05,0.1,0,4,0,0,45,45,3500,73,0,0,0,47,3500,73,127,0,,,NaN,NaN,NaN,NaN,NaN,1,2020-11-12_18h32.43.233,Pirates_expt3,02.01.20,Win32,60,NaN,,NaN,NaN,NaN,NaN,NaN,,,NaN,NaN,NaN,NaN,NaN,,,NaN,NaN,NaN,NaN,NaN,"",,,4,0,4,0,1,3,200,0,200,0,1,199,,NaN,200,0,200,0,1,199,space,0.278255,,NaN,,NaN,2
NaN,NaN,NaN,NaN,NaN,"",NaN,NaN,"",NaN,,NaN,NaN,NaN,NaN,NaN,NaN,NaN,NaN,NaN,NaN,NaN,NaN,NaN,NaN,NaN,NaN,NaN,NaN,NaN,,,NaN,NaN,NaN,NaN,,,NaN,NaN,NaN,NaN,NaN,,,,NaN,NaN,NaN,NaN,NaN,1,2020-11-12_18h32.43.233,Pirates_expt3,02.01.20,Win32,60,NaN,,NaN,NaN,NaN,NaN,NaN,,,NaN,NaN,NaN,NaN,NaN,,,NaN,NaN,NaN,NaN,NaN,"",,,NaN,NaN,NaN,NaN,NaN,NaN,NaN,NaN,NaN,NaN,NaN,NaN,,NaN,5,0,5,0,1,NaN,,NaN,,NaN,,NaN,2
NaN,NaN,NaN,NaN,NaN,"",NaN,NaN,"",NaN,,1,1,47,2,84,33,67,0.1,0.15,0.05,0.15,33,67,84,0.15,0.05,0.1,3,3,0,0,33,33,3500,73,s,0.31728,6,47,3500,73,127,0,,,NaN,NaN,NaN,NaN,NaN,1,2020-11-12_18h32.43.233,Pirates_expt3,02.01.20,Win32,60,NaN,,NaN,NaN,NaN,NaN,NaN,,,NaN,NaN,NaN,NaN,NaN,,,NaN,NaN,NaN,NaN,NaN,"",,,4,0,4,0,1,3,200,0,200,0,1,199,,NaN,200,0,200,0,1,199,,NaN,,NaN,,NaN,2
NaN,NaN,NaN,NaN,NaN,"",NaN,NaN,"",NaN,,1,1,47,2,85,43,69,0.1,0.15,0.05,0.15,43,69,85,0.15,0.05,0.1,0,4,0,0,43,33,3500,74,0,0,0,47,3500,74,126,10.709,,,NaN,NaN,NaN,NaN,NaN,1,2020-11-12_18h32.43.233,Pirates_expt3,02.01.20,Win32,60,NaN,,NaN,NaN,NaN,NaN,NaN,,,NaN,NaN,NaN,NaN,NaN,,,NaN,NaN,NaN,NaN,NaN,"",,,4,0,4,0,1,3,200,0,200,0,1,199,,NaN,200,0,200,0,1,199,s,0.31728,,NaN,,NaN,2
NaN,NaN,NaN,NaN,NaN,"",NaN,NaN,"",NaN,,NaN,NaN,NaN,NaN,NaN,NaN,NaN,NaN,NaN,NaN,NaN,NaN,NaN,NaN,NaN,NaN,NaN,NaN,NaN,,,NaN,NaN,NaN,NaN,,,NaN,NaN,NaN,NaN,NaN,,,,NaN,NaN,NaN,NaN,NaN,1,2020-11-12_18h32.43.233,Pirates_expt3,02.01.20,Win32,60,NaN,,NaN,NaN,NaN,NaN,NaN,,,NaN,NaN,NaN,NaN,NaN,,,NaN,NaN,NaN,NaN,NaN,"",,,NaN,NaN,NaN,NaN,NaN,NaN,9,0,9,0,1,NaN,,NaN,NaN,NaN,NaN,NaN,NaN,NaN,,NaN,,NaN,,NaN,2
NaN,NaN,NaN,NaN,NaN,"",NaN,NaN,"",NaN,,1,1,47,3,85,43,69,0.1,0.15,0.05,0.05,43,69,85,0.15,0.05,0.1,1,1,k,1.057.475,0,0,3500,75,N/A,0,0,47,3500,75,125,0,,,NaN,NaN,NaN,NaN,NaN,1,2020-11-12_18h32.43.233,Pirates_expt3,02.01.20,Win32,60,NaN,,NaN,NaN,NaN,NaN,NaN,,,NaN,NaN,NaN,NaN,NaN,,,NaN,NaN,NaN,NaN,NaN,"",,,4,0,4,0,1,3,200,0,200,0,1,199,,NaN,NaN,NaN,NaN,NaN,NaN,NaN,,NaN,,NaN,,NaN,2
NaN,NaN,NaN,NaN,NaN,"",NaN,NaN,"",NaN,,1,1,47,3,87,52,70,0.1,0.15,0.05,0.05,52,70,87,0.15,0.05,0.1,0,2,0,0,0,0,3500,75,N/A,0,0,47,3500,75,125,0,,,NaN,NaN,NaN,NaN,NaN,1,2020-11-12_18h32.43.233,Pirates_expt3,02.01.20,Win32,60,NaN,,NaN,NaN,NaN,NaN,NaN,,,NaN,NaN,NaN,NaN,NaN,,,NaN,NaN,NaN,NaN,NaN,"",,,4,0,4,0,1,3,200,0,200,0,1,199,k,1.057,0.475,NaN,NaN,NaN,NaN,NaN,,NaN,,NaN,,NaN,2
NaN,NaN,NaN,NaN,NaN,"",NaN,NaN,"",NaN,,1,1,46,3,87,52,70,0.1,0.15,0.05,0.05,52,70,87,0.15,0.05,0.1,2,3,0,0,70,70,3500,75,space,0.27016,0,46,3500,75,125,0,,,NaN,NaN,NaN,NaN,NaN,1,2020-11-12_18h32.43.233,Pirates_expt3,02.01.20,Win32,60,NaN,,NaN,NaN,NaN,NaN,NaN,,,NaN,NaN,NaN,NaN,NaN,,,NaN,NaN,NaN,NaN,NaN,"",,,4,0,4,0,1,3,200,0,200,0,1,199,,NaN,200,0,200,0,1,199,,NaN,,NaN,,NaN,2
NaN,NaN,NaN,NaN,NaN,"",NaN,NaN,"",NaN,,1,1,46,3,88,59,70,0.1,0.15,0.05,0.05,59,70,88,0.15,0.05,0.1,0,4,0,0,70,70,3571,76,0,0,0,46,3571,76,124,0,,,NaN,NaN,NaN,NaN,NaN,1,2020-11-12_18h32.43.233,Pirates_expt3,02.01.20,Win32,60,NaN,,NaN,NaN,NaN,NaN,NaN,,,NaN,NaN,NaN,NaN,NaN,,,NaN,NaN,NaN,NaN,NaN,"",,,4,0,4,0,1,3,200,0,200,0,1,199,,NaN,200,0,200,0,1,199,space,0.27016,,NaN,,NaN,2
NaN,NaN,NaN,NaN,NaN,"",NaN,NaN,"",NaN,,NaN,NaN,NaN,NaN,NaN,NaN,NaN,NaN,NaN,NaN,NaN,NaN,NaN,NaN,NaN,NaN,NaN,NaN,NaN,,,NaN,NaN,NaN,NaN,,,NaN,NaN,NaN,NaN,NaN,,,,NaN,NaN,NaN,NaN,NaN,1,2020-11-12_18h32.43.233,Pirates_expt3,02.01.20,Win32,60,NaN,,NaN,NaN,NaN,NaN,NaN,,,NaN,NaN,NaN,NaN,NaN,,,NaN,NaN,NaN,NaN,NaN,"",,,NaN,NaN,NaN,NaN,NaN,NaN,NaN,NaN,NaN,NaN,NaN,NaN,,NaN,0,0,0,0,1,NaN,,NaN,,NaN,,NaN,2
NaN,NaN,NaN,NaN,NaN,"",NaN,NaN,"",NaN,,1,1,46,3,88,59,67,0.1,0.15,0.05,0.05,59,67,88,0.15,0.05,0.1,2,3,0,0,67,67,3571,76,space,0.26785,0,46,3571,76,124,0,,,NaN,NaN,NaN,NaN,NaN,1,2020-11-12_18h32.43.233,Pirates_expt3,02.01.20,Win32,60,NaN,,NaN,NaN,NaN,NaN,NaN,,,NaN,NaN,NaN,NaN,NaN,,,NaN,NaN,NaN,NaN,NaN,"",,,4,0,4,0,1,3,200,0,200,0,1,199,,NaN,200,0,200,0,1,199,,NaN,,NaN,,NaN,2
NaN,NaN,NaN,NaN,NaN,"",NaN,NaN,"",NaN,,1,1,47,3,89,65,67,0.1,0.15,0.05,0.05,65,67,89,0.15,0.05,0.1,0,4,0,0,67,67,3638,77,0,0,0,47,3638,77,123,0,,,NaN,NaN,NaN,NaN,NaN,1,2020-11-12_18h32.43.233,Pirates_expt3,02.01.20,Win32,60,NaN,,NaN,NaN,NaN,NaN,NaN,,,NaN,NaN,NaN,NaN,NaN,,,NaN,NaN,NaN,NaN,NaN,"",,,4,0,4,0,1,3,200,0,200,0,1,199,,NaN,200,0,200,0,1,199,space,0.26785,,NaN,,NaN,2
NaN,NaN,NaN,NaN,NaN,"",NaN,NaN,"",NaN,,NaN,NaN,NaN,NaN,NaN,NaN,NaN,NaN,NaN,NaN,NaN,NaN,NaN,NaN,NaN,NaN,NaN,NaN,NaN,,,NaN,NaN,NaN,NaN,,,NaN,NaN,NaN,NaN,NaN,,,,NaN,NaN,NaN,NaN,NaN,1,2020-11-12_18h32.43.233,Pirates_expt3,02.01.20,Win32,60,NaN,,NaN,NaN,NaN,NaN,NaN,,,NaN,NaN,NaN,NaN,NaN,,,NaN,NaN,NaN,NaN,NaN,"",,,NaN,NaN,NaN,NaN,NaN,NaN,NaN,NaN,NaN,NaN,NaN,NaN,,NaN,1,0,1,0,1,NaN,,NaN,,NaN,,NaN,2
NaN,NaN,NaN,NaN,NaN,"",NaN,NaN,"",NaN,,1,1,47,3,89,65,60,0.1,0.15,0.05,0.05,65,60,89,0.15,0.05,0.1,2,3,0,0,60,60,3638,77,space,0.3702,0,47,3638,77,123,0,,,NaN,NaN,NaN,NaN,NaN,1,2020-11-12_18h32.43.233,Pirates_expt3,02.01.20,Win32,60,NaN,,NaN,NaN,NaN,NaN,NaN,,,NaN,NaN,NaN,NaN,NaN,,,NaN,NaN,NaN,NaN,NaN,"",,,4,0,4,0,1,3,200,0,200,0,1,199,,NaN,200,0,200,0,1,199,,NaN,,NaN,,NaN,2
NaN,NaN,NaN,NaN,NaN,"",NaN,NaN,"",NaN,,1,1,47,3,90,70,60,0.1,0.15,0.05,0.05,70,60,90,0.15,0.05,0.1,0,4,0,0,60,60,3699,78,0,0,0,47,3699,78,122,0,,,NaN,NaN,NaN,NaN,NaN,1,2020-11-12_18h32.43.233,Pirates_expt3,02.01.20,Win32,60,NaN,,NaN,NaN,NaN,NaN,NaN,,,NaN,NaN,NaN,NaN,NaN,,,NaN,NaN,NaN,NaN,NaN,"",,,4,0,4,0,1,3,200,0,200,0,1,199,,NaN,200,0,200,0,1,199,space,0.3702,,NaN,,NaN,2
NaN,NaN,NaN,NaN,NaN,"",NaN,NaN,"",NaN,,NaN,NaN,NaN,NaN,NaN,NaN,NaN,NaN,NaN,NaN,NaN,NaN,NaN,NaN,NaN,NaN,NaN,NaN,NaN,,,NaN,NaN,NaN,NaN,,,NaN,NaN,NaN,NaN,NaN,,,,NaN,NaN,NaN,NaN,NaN,1,2020-11-12_18h32.43.233,Pirates_expt3,02.01.20,Win32,60,NaN,,NaN,NaN,NaN,NaN,NaN,,,NaN,NaN,NaN,NaN,NaN,,,NaN,NaN,NaN,NaN,NaN,"",,,NaN,NaN,NaN,NaN,NaN,NaN,NaN,NaN,NaN,NaN,NaN,NaN,,NaN,2,0,2,0,1,NaN,,NaN,,NaN,,NaN,2
NaN,NaN,NaN,NaN,NaN,"",NaN,NaN,"",NaN,,1,1,47,3,90,70,52,0.1,0.15,0.05,0.05,70,52,90,0.15,0.05,0.1,2,3,0,0,52,52,3699,78,space,0.32979,0,47,3699,78,122,0,,,NaN,NaN,NaN,NaN,NaN,1,2020-11-12_18h32.43.233,Pirates_expt3,02.01.20,Win32,60,NaN,,NaN,NaN,NaN,NaN,NaN,,,NaN,NaN,NaN,NaN,NaN,,,NaN,NaN,NaN,NaN,NaN,"",,,4,0,4,0,1,3,200,0,200,0,1,199,,NaN,200,0,200,0,1,199,,NaN,,NaN,,NaN,2
NaN,NaN,NaN,NaN,NaN,"",NaN,NaN,"",NaN,,1,1,47,3,91,75,52,0.1,0.15,0.05,0.05,75,52,91,0.15,0.05,0.1,0,4,0,0,52,52,3751,79,0,0,0,47,3751,79,121,0,,,NaN,NaN,NaN,NaN,NaN,1,2020-11-12_18h32.43.233,Pirates_expt3,02.01.20,Win32,60,NaN,,NaN,NaN,NaN,NaN,NaN,,,NaN,NaN,NaN,NaN,NaN,,,NaN,NaN,NaN,NaN,NaN,"",,,4,0,4,0,1,3,200,0,200,0,1,199,,NaN,200,0,200,0,1,199,space,0.32979,,NaN,,NaN,2
NaN,NaN,NaN,NaN,NaN,"",NaN,NaN,"",NaN,,NaN,NaN,NaN,NaN,NaN,NaN,NaN,NaN,NaN,NaN,NaN,NaN,NaN,NaN,NaN,NaN,NaN,NaN,NaN,,,NaN,NaN,NaN,NaN,,,NaN,NaN,NaN,NaN,NaN,,,,NaN,NaN,NaN,NaN,NaN,1,2020-11-12_18h32.43.233,Pirates_expt3,02.01.20,Win32,60,NaN,,NaN,NaN,NaN,NaN,NaN,,,NaN,NaN,NaN,NaN,NaN,,,NaN,NaN,NaN,NaN,NaN,"",,,NaN,NaN,NaN,NaN,NaN,NaN,NaN,NaN,NaN,NaN,NaN,NaN,,NaN,3,0,3,0,1,NaN,,NaN,,NaN,,NaN,2
NaN,NaN,NaN,NaN,NaN,"",NaN,NaN,"",NaN,,1,1,47,3,91,75,42,0.1,0.15,0.05,0.05,75,42,91,0.15,0.05,0.1,3,3,0,0,42,42,3751,79,s,0.10525,4,47,3751,79,121,0,,,NaN,NaN,NaN,NaN,NaN,1,2020-11-12_18h32.43.233,Pirates_expt3,02.01.20,Win32,60,NaN,,NaN,NaN,NaN,NaN,NaN,,,NaN,NaN,NaN,NaN,NaN,,,NaN,NaN,NaN,NaN,NaN,"",,,4,0,4,0,1,3,200,0,200,0,1,199,,NaN,200,0,200,0,1,199,,NaN,,NaN,,NaN,2
NaN,NaN,NaN,NaN,NaN,"",NaN,NaN,"",NaN,,1,1,46,3,92,78,45,0.1,0.15,0.05,0.05,78,45,92,0.15,0.05,0.1,0,4,0,0,45,42,3751,80,0,0,0,46,3751,80,120,7.477,,,NaN,NaN,NaN,NaN,NaN,1,2020-11-12_18h32.43.233,Pirates_expt3,02.01.20,Win32,60,NaN,,NaN,NaN,NaN,NaN,NaN,,,NaN,NaN,NaN,NaN,NaN,,,NaN,NaN,NaN,NaN,NaN,"",,,4,0,4,0,1,3,200,0,200,0,1,199,,NaN,200,0,200,0,1,199,s,0.10525,,NaN,,NaN,2
NaN,NaN,NaN,NaN,NaN,"",NaN,NaN,"",NaN,,NaN,NaN,NaN,NaN,NaN,NaN,NaN,NaN,NaN,NaN,NaN,NaN,NaN,NaN,NaN,NaN,NaN,NaN,NaN,,,NaN,NaN,NaN,NaN,,,NaN,NaN,NaN,NaN,NaN,,,,NaN,NaN,NaN,NaN,NaN,1,2020-11-12_18h32.43.233,Pirates_expt3,02.01.20,Win32,60,NaN,,NaN,NaN,NaN,NaN,NaN,,,NaN,NaN,NaN,NaN,NaN,,,NaN,NaN,NaN,NaN,NaN,"",,,NaN,NaN,NaN,NaN,NaN,NaN,10,0,10,0,1,NaN,,NaN,NaN,NaN,NaN,NaN,NaN,NaN,,NaN,,NaN,,NaN,2
NaN,NaN,NaN,NaN,NaN,"",NaN,NaN,"",NaN,,1,1,46,2,92,78,45,0.1,0.15,0.05,0.15,78,45,92,0.15,0.05,0.1,1,1,j,120.822,0,0,3751,81,N/A,0,0,46,3751,81,119,0,,,NaN,NaN,NaN,NaN,NaN,1,2020-11-12_18h32.43.233,Pirates_expt3,02.01.20,Win32,60,NaN,,NaN,NaN,NaN,NaN,NaN,,,NaN,NaN,NaN,NaN,NaN,,,NaN,NaN,NaN,NaN,NaN,"",,,4,0,4,0,1,3,200,0,200,0,1,199,,NaN,NaN,NaN,NaN,NaN,NaN,NaN,,NaN,,NaN,,NaN,2
NaN,NaN,NaN,NaN,NaN,"",NaN,NaN,"",NaN,,1,1,46,2,93,81,48,0.1,0.15,0.05,0.15,81,48,93,0.15,0.05,0.1,0,2,0,0,0,0,3751,81,N/A,0,0,46,3751,81,119,0,,,NaN,NaN,NaN,NaN,NaN,1,2020-11-12_18h32.43.233,Pirates_expt3,02.01.20,Win32,60,NaN,,NaN,NaN,NaN,NaN,NaN,,,NaN,NaN,NaN,NaN,NaN,,,NaN,NaN,NaN,NaN,NaN,"",,,4,0,4,0,1,3,200,0,200,0,1,199,j,120.822,NaN,NaN,NaN,NaN,NaN,NaN,,NaN,,NaN,,NaN,2
NaN,NaN,NaN,NaN,NaN,"",NaN,NaN,"",NaN,,1,1,46,2,93,81,48,0.1,0.15,0.05,0.15,81,48,93,0.15,0.05,0.1,2,3,0,0,81,81,3751,81,space,0.564195,0,46,3751,81,119,0,,,NaN,NaN,NaN,NaN,NaN,1,2020-11-12_18h32.43.233,Pirates_expt3,02.01.20,Win32,60,NaN,,NaN,NaN,NaN,NaN,NaN,,,NaN,NaN,NaN,NaN,NaN,,,NaN,NaN,NaN,NaN,NaN,"",,,4,0,4,0,1,3,200,0,200,0,1,199,,NaN,200,0,200,0,1,199,,NaN,,NaN,,NaN,2
NaN,NaN,NaN,NaN,NaN,"",NaN,NaN,"",NaN,,1,1,46,2,93,81,50,0.1,0.15,0.05,0.15,81,50,93,0.15,0.05,0.1,0,4,0,0,81,81,3833,82,0,0,0,46,3833,82,118,0,,,NaN,NaN,NaN,NaN,NaN,1,2020-11-12_18h32.43.233,Pirates_expt3,02.01.20,Win32,60,NaN,,NaN,NaN,NaN,NaN,NaN,,,NaN,NaN,NaN,NaN,NaN,,,NaN,NaN,NaN,NaN,NaN,"",,,4,0,4,0,1,3,200,0,200,0,1,199,,NaN,200,0,200,0,1,199,space,0.564195,,NaN,,NaN,2
NaN,NaN,NaN,NaN,NaN,"",NaN,NaN,"",NaN,,NaN,NaN,NaN,NaN,NaN,NaN,NaN,NaN,NaN,NaN,NaN,NaN,NaN,NaN,NaN,NaN,NaN,NaN,NaN,,,NaN,NaN,NaN,NaN,,,NaN,NaN,NaN,NaN,NaN,,,,NaN,NaN,NaN,NaN,NaN,1,2020-11-12_18h32.43.233,Pirates_expt3,02.01.20,Win32,60,NaN,,NaN,NaN,NaN,NaN,NaN,,,NaN,NaN,NaN,NaN,NaN,,,NaN,NaN,NaN,NaN,NaN,"",,,NaN,NaN,NaN,NaN,NaN,NaN,NaN,NaN,NaN,NaN,NaN,NaN,,NaN,0,0,0,0,1,NaN,,NaN,,NaN,,NaN,2
NaN,NaN,NaN,NaN,NaN,"",NaN,NaN,"",NaN,,1,1,46,2,93,77,50,0.1,0.15,0.05,0.15,77,50,93,0.15,0.05,0.1,2,3,0,0,77,77,3833,82,space,0.054155,0,46,3833,82,118,0,,,NaN,NaN,NaN,NaN,NaN,1,2020-11-12_18h32.43.233,Pirates_expt3,02.01.20,Win32,60,NaN,,NaN,NaN,NaN,NaN,NaN,,,NaN,NaN,NaN,NaN,NaN,,,NaN,NaN,NaN,NaN,NaN,"",,,4,0,4,0,1,3,200,0,200,0,1,199,,NaN,200,0,200,0,1,199,,NaN,,NaN,,NaN,2
