consent_given,screeningQ1,screeningQ2,age,gender,startingValues,rewardVec,decay_rate,replenishRates,travel_duration,feedback_duration,blk_number,blk_type,meanRewardBlock,currentPatchPosition,patchValueLeft,patchValueTop,patchValueRight,patchReplenishLeft,patchReplenishTop,patchReplenishRight,currentPatchReplenishRate,patchValueSlow,patchValueMedium,patchValueFast,patchReplenishSlow,patchReplenishMedium,patchReplenishFast,decisionType,trialPhase,patch_selection_key,patch_selection_RT,actual_rew_gain,rew_fbk_displayed,blk_points,blk_actions,exploit_phase_key,exploit_phase_RT,num_exploit_actions,meanRewardEntireExperiment,total_points,total_actions,actions_remaining,timeInPatch_seconds_,task_instruc_resp_keys,task_instruc_resp_rt,trials_welcome_thisRepN,trials_welcome_thisTrialN,trials_welcome_thisN,trials_welcome_thisIndex,trials_welcome_ran,participant,session,date,expName,psychopyVersion,OS,frameRate,slider_response,slider_rt,trials_screening_thisRepN,trials_screening_thisTrialN,trials_screening_thisN,trials_screening_thisIndex,trials_screening_ran,demo_resp_keys,demo_resp_rt,trials_demographics_thisRepN,trials_demographics_thisTrialN,trials_demographics_thisN,trials_demographics_thisIndex,trials_demographics_ran,key_resp_keys,key_resp_rt,trials_instructions_thisRepN,trials_instructions_thisTrialN,trials_instructions_thisN,trials_instructions_thisIndex,trials_instructions_ran,rewardVectorToManipulate,blk_instruc_resp_keys,blk_instruc_resp_rt,blk_loop_thisRepN,blk_loop_thisTrialN,blk_loop_thisN,blk_loop_thisIndex,blk_loop_ran,blk_loop_order,trials_thisRepN,trials_thisTrialN,trials_thisN,trials_thisIndex,trials_ran,trials_order,sel_resp_keys,sel_resp_rt,exploit_loop_thisRepN,exploit_loop_thisTrialN,exploit_loop_thisN,exploit_loop_thisIndex,exploit_loop_ran,exploit_loop_order,exploit_resp_keys,exploit_resp_rt,post_blk_resp_keys,post_blk_resp_rt,closing_resp_keys,closing_resp_rt
0,0,0,0,0,"0",0,0,"0",0,0,0,0,0,0,0,0,0,0,0,0,0,0,0,0,0,0,0,0,0,0,0,0,0,0,0,0,0,0,0,NaN,NaN,NaN,0,space,2.59885,0,0,0,0,1,37,1,2020-11-11_16h15.44.514,Pirates_expt3,2020.1.2,Win32,60,NaN,NaN,NaN,NaN,NaN,NaN,NaN,,NaN,NaN,NaN,NaN,NaN,NaN,,NaN,NaN,NaN,NaN,NaN,NaN,"",,NaN,NaN,NaN,NaN,NaN,NaN,NaN,NaN,NaN,NaN,NaN,NaN,NaN,,NaN,NaN,NaN,NaN,NaN,NaN,NaN,,NaN,,NaN,,NaN
NaN,NaN,NaN,NaN,NaN,"",NaN,NaN,"",NaN,NaN,NaN,NaN,NaN,NaN,NaN,NaN,NaN,NaN,NaN,NaN,NaN,NaN,NaN,NaN,NaN,NaN,NaN,NaN,NaN,,NaN,NaN,NaN,NaN,NaN,,NaN,NaN,NaN,NaN,NaN,NaN,NaN,space,15.853195,1,0,1,0,1,37,1,2020-11-11_16h15.44.514,Pirates_expt3,2020.1.2,Win32,60,NaN,NaN,NaN,NaN,NaN,NaN,NaN,,NaN,NaN,NaN,NaN,NaN,NaN,,NaN,NaN,NaN,NaN,NaN,NaN,"",,NaN,NaN,NaN,NaN,NaN,NaN,NaN,NaN,NaN,NaN,NaN,NaN,NaN,,NaN,NaN,NaN,NaN,NaN,NaN,NaN,,NaN,,NaN,,NaN
NaN,NaN,NaN,NaN,NaN,"",NaN,NaN,"",NaN,NaN,NaN,NaN,NaN,NaN,NaN,NaN,NaN,NaN,NaN,NaN,NaN,NaN,NaN,NaN,NaN,NaN,NaN,NaN,NaN,,NaN,NaN,NaN,NaN,NaN,,NaN,NaN,NaN,NaN,NaN,NaN,NaN,space,59.07652,2,0,2,0,1,37,1,2020-11-11_16h15.44.514,Pirates_expt3,2020.1.2,Win32,60,NaN,NaN,NaN,NaN,NaN,NaN,NaN,,NaN,NaN,NaN,NaN,NaN,NaN,,NaN,NaN,NaN,NaN,NaN,NaN,"",,NaN,NaN,NaN,NaN,NaN,NaN,NaN,NaN,NaN,NaN,NaN,NaN,NaN,,NaN,NaN,NaN,NaN,NaN,NaN,NaN,,NaN,,NaN,,NaN
NaN,NaN,NaN,NaN,NaN,"",NaN,NaN,"",NaN,NaN,NaN,NaN,NaN,NaN,NaN,NaN,NaN,NaN,NaN,NaN,NaN,NaN,NaN,NaN,NaN,NaN,NaN,NaN,NaN,,NaN,NaN,NaN,NaN,NaN,,NaN,NaN,NaN,NaN,NaN,NaN,NaN,space,15.393185,3,0,3,0,1,37,1,2020-11-11_16h15.44.514,Pirates_expt3,2020.1.2,Win32,60,NaN,NaN,NaN,NaN,NaN,NaN,NaN,,NaN,NaN,NaN,NaN,NaN,NaN,,NaN,NaN,NaN,NaN,NaN,NaN,"",,NaN,NaN,NaN,NaN,NaN,NaN,NaN,NaN,NaN,NaN,NaN,NaN,NaN,,NaN,NaN,NaN,NaN,NaN,NaN,NaN,,NaN,,NaN,,NaN
NaN,NaN,NaN,NaN,NaN,"",NaN,NaN,"",NaN,NaN,NaN,NaN,NaN,NaN,NaN,NaN,NaN,NaN,NaN,NaN,NaN,NaN,NaN,NaN,NaN,NaN,NaN,NaN,NaN,,NaN,NaN,NaN,NaN,NaN,,NaN,NaN,NaN,NaN,NaN,NaN,NaN,space,1.438705,4,0,4,0,1,37,1,2020-11-11_16h15.44.514,Pirates_expt3,2020.1.2,Win32,60,NaN,NaN,NaN,NaN,NaN,NaN,NaN,,NaN,NaN,NaN,NaN,NaN,NaN,,NaN,NaN,NaN,NaN,NaN,NaN,"",,NaN,NaN,NaN,NaN,NaN,NaN,NaN,NaN,NaN,NaN,NaN,NaN,NaN,,NaN,NaN,NaN,NaN,NaN,NaN,NaN,,NaN,,NaN,,NaN
NaN,NaN,NaN,NaN,NaN,"",NaN,NaN,"",NaN,NaN,NaN,NaN,NaN,NaN,NaN,NaN,NaN,NaN,NaN,NaN,NaN,NaN,NaN,NaN,NaN,NaN,NaN,NaN,NaN,,NaN,NaN,NaN,NaN,NaN,,NaN,NaN,NaN,NaN,NaN,NaN,NaN,space,8.11026,5,0,5,0,1,37,1,2020-11-11_16h15.44.514,Pirates_expt3,2020.1.2,Win32,60,NaN,NaN,NaN,NaN,NaN,NaN,NaN,,NaN,NaN,NaN,NaN,NaN,NaN,,NaN,NaN,NaN,NaN,NaN,NaN,"",,NaN,NaN,NaN,NaN,NaN,NaN,NaN,NaN,NaN,NaN,NaN,NaN,NaN,,NaN,NaN,NaN,NaN,NaN,NaN,NaN,,NaN,,NaN,,NaN
1,1,NaN,NaN,NaN,"",NaN,NaN,"",NaN,NaN,NaN,NaN,NaN,NaN,NaN,NaN,NaN,NaN,NaN,NaN,NaN,NaN,NaN,NaN,NaN,NaN,NaN,NaN,NaN,,NaN,NaN,NaN,NaN,NaN,,NaN,NaN,NaN,NaN,NaN,NaN,NaN,,NaN,NaN,NaN,NaN,NaN,NaN,37,1,2020-11-11_16h15.44.514,Pirates_expt3,2020.1.2,Win32,60,4,7.00306,0,0,0,0,1,,NaN,NaN,NaN,NaN,NaN,NaN,,NaN,NaN,NaN,NaN,NaN,NaN,"",,NaN,NaN,NaN,NaN,NaN,NaN,NaN,NaN,NaN,NaN,NaN,NaN,NaN,,NaN,NaN,NaN,NaN,NaN,NaN,NaN,,NaN,,NaN,,NaN
NaN,NaN,1,NaN,NaN,"",NaN,NaN,"",NaN,NaN,NaN,NaN,NaN,NaN,NaN,NaN,NaN,NaN,NaN,NaN,NaN,NaN,NaN,NaN,NaN,NaN,NaN,NaN,NaN,,NaN,NaN,NaN,NaN,NaN,,NaN,NaN,NaN,NaN,NaN,NaN,NaN,,NaN,NaN,NaN,NaN,NaN,NaN,37,1,2020-11-11_16h15.44.514,Pirates_expt3,2020.1.2,Win32,60,3,22.35831,1,0,1,0,1,,NaN,NaN,NaN,NaN,NaN,NaN,,NaN,NaN,NaN,NaN,NaN,NaN,"",,NaN,NaN,NaN,NaN,NaN,NaN,NaN,NaN,NaN,NaN,NaN,NaN,NaN,,NaN,NaN,NaN,NaN,NaN,NaN,NaN,,NaN,,NaN,,NaN
NaN,NaN,NaN,19,NaN,"",NaN,NaN,"",NaN,NaN,NaN,NaN,NaN,NaN,NaN,NaN,NaN,NaN,NaN,NaN,NaN,NaN,NaN,NaN,NaN,NaN,NaN,NaN,NaN,,NaN,NaN,NaN,NaN,NaN,,NaN,NaN,NaN,NaN,NaN,NaN,NaN,,NaN,NaN,NaN,NaN,NaN,NaN,37,1,2020-11-11_16h15.44.514,Pirates_expt3,2020.1.2,Win32,60,NaN,NaN,NaN,NaN,NaN,NaN,NaN,return,4.08526,0,0,0,0,1,,NaN,NaN,NaN,NaN,NaN,NaN,"",,NaN,NaN,NaN,NaN,NaN,NaN,NaN,NaN,NaN,NaN,NaN,NaN,NaN,,NaN,NaN,NaN,NaN,NaN,NaN,NaN,,NaN,,NaN,,NaN
NaN,NaN,NaN,NaN,1,"",NaN,NaN,"",NaN,NaN,NaN,NaN,NaN,NaN,NaN,NaN,NaN,NaN,NaN,NaN,NaN,NaN,NaN,NaN,NaN,NaN,NaN,NaN,NaN,,NaN,NaN,NaN,NaN,NaN,,NaN,NaN,NaN,NaN,NaN,NaN,NaN,,NaN,NaN,NaN,NaN,NaN,NaN,37,1,2020-11-11_16h15.44.514,Pirates_expt3,2020.1.2,Win32,60,NaN,NaN,NaN,NaN,NaN,NaN,NaN,return,5.187995,1,0,1,0,1,,NaN,NaN,NaN,NaN,NaN,NaN,"",,NaN,NaN,NaN,NaN,NaN,NaN,NaN,NaN,NaN,NaN,NaN,NaN,NaN,,NaN,NaN,NaN,NaN,NaN,NaN,NaN,,NaN,,NaN,,NaN
NaN,NaN,NaN,NaN,NaN,"",NaN,NaN,"",NaN,NaN,NaN,NaN,NaN,NaN,NaN,NaN,NaN,NaN,NaN,NaN,NaN,NaN,NaN,NaN,NaN,NaN,NaN,NaN,NaN,,NaN,NaN,NaN,NaN,NaN,,NaN,NaN,NaN,NaN,NaN,NaN,NaN,,NaN,NaN,NaN,NaN,NaN,NaN,37,1,2020-11-11_16h15.44.514,Pirates_expt3,2020.1.2,Win32,60,NaN,NaN,NaN,NaN,NaN,NaN,NaN,,NaN,NaN,NaN,NaN,NaN,NaN,space,12.334515,0,0,0,0,1,"",,NaN,NaN,NaN,NaN,NaN,NaN,NaN,NaN,NaN,NaN,NaN,NaN,NaN,,NaN,NaN,NaN,NaN,NaN,NaN,NaN,,NaN,,NaN,,NaN
NaN,NaN,NaN,NaN,NaN,"",NaN,NaN,"",NaN,NaN,NaN,NaN,NaN,NaN,NaN,NaN,NaN,NaN,NaN,NaN,NaN,NaN,NaN,NaN,NaN,NaN,NaN,NaN,NaN,,NaN,NaN,NaN,NaN,NaN,,NaN,NaN,NaN,NaN,NaN,NaN,NaN,,NaN,NaN,NaN,NaN,NaN,NaN,37,1,2020-11-11_16h15.44.514,Pirates_expt3,2020.1.2,Win32,60,NaN,NaN,NaN,NaN,NaN,NaN,NaN,,NaN,NaN,NaN,NaN,NaN,NaN,space,2.75706,1,0,1,0,1,"",,NaN,NaN,NaN,NaN,NaN,NaN,NaN,NaN,NaN,NaN,NaN,NaN,NaN,,NaN,NaN,NaN,NaN,NaN,NaN,NaN,,NaN,,NaN,,NaN
NaN,NaN,NaN,NaN,NaN,"",NaN,NaN,"",NaN,NaN,NaN,NaN,NaN,NaN,NaN,NaN,NaN,NaN,NaN,NaN,NaN,NaN,NaN,NaN,NaN,NaN,NaN,NaN,NaN,,NaN,NaN,NaN,NaN,NaN,,NaN,NaN,NaN,NaN,NaN,NaN,NaN,,NaN,NaN,NaN,NaN,NaN,NaN,37,1,2020-11-11_16h15.44.514,Pirates_expt3,2020.1.2,Win32,60,NaN,NaN,NaN,NaN,NaN,NaN,NaN,,NaN,NaN,NaN,NaN,NaN,NaN,space,3.996245,2,0,2,0,1,"",,NaN,NaN,NaN,NaN,NaN,NaN,NaN,NaN,NaN,NaN,NaN,NaN,NaN,,NaN,NaN,NaN,NaN,NaN,NaN,NaN,,NaN,,NaN,,NaN
NaN,NaN,NaN,NaN,NaN,"",NaN,NaN,"",NaN,NaN,NaN,NaN,NaN,NaN,NaN,NaN,NaN,NaN,NaN,NaN,NaN,NaN,NaN,NaN,NaN,NaN,NaN,NaN,NaN,,NaN,NaN,NaN,NaN,NaN,,NaN,NaN,NaN,NaN,NaN,NaN,NaN,,NaN,NaN,NaN,NaN,NaN,NaN,37,1,2020-11-11_16h15.44.514,Pirates_expt3,2020.1.2,Win32,60,NaN,NaN,NaN,NaN,NaN,NaN,NaN,,NaN,NaN,NaN,NaN,NaN,NaN,space,19.48181,3,0,3,0,1,"",,NaN,NaN,NaN,NaN,NaN,NaN,NaN,NaN,NaN,NaN,NaN,NaN,NaN,,NaN,NaN,NaN,NaN,NaN,NaN,NaN,,NaN,,NaN,,NaN
NaN,NaN,NaN,NaN,NaN,"",NaN,NaN,"",NaN,NaN,NaN,NaN,NaN,NaN,NaN,NaN,NaN,NaN,NaN,NaN,NaN,NaN,NaN,NaN,NaN,NaN,NaN,NaN,NaN,,NaN,NaN,NaN,NaN,NaN,,NaN,NaN,NaN,NaN,NaN,NaN,NaN,,NaN,NaN,NaN,NaN,NaN,NaN,37,1,2020-11-11_16h15.44.514,Pirates_expt3,2020.1.2,Win32,60,NaN,NaN,NaN,NaN,NaN,NaN,NaN,,NaN,NaN,NaN,NaN,NaN,NaN,space,7.090775,4,0,4,0,1,"",,NaN,NaN,NaN,NaN,NaN,NaN,NaN,NaN,NaN,NaN,NaN,NaN,NaN,,NaN,NaN,NaN,NaN,NaN,NaN,NaN,,NaN,,NaN,,NaN
NaN,NaN,NaN,NaN,NaN,"",NaN,NaN,"",NaN,NaN,NaN,NaN,NaN,NaN,NaN,NaN,NaN,NaN,NaN,NaN,NaN,NaN,NaN,NaN,NaN,NaN,NaN,NaN,NaN,,NaN,NaN,NaN,NaN,NaN,,NaN,NaN,NaN,NaN,NaN,NaN,NaN,,NaN,NaN,NaN,NaN,NaN,NaN,37,1,2020-11-11_16h15.44.514,Pirates_expt3,2020.1.2,Win32,60,NaN,NaN,NaN,NaN,NaN,NaN,NaN,,NaN,NaN,NaN,NaN,NaN,NaN,space,8.09732,5,0,5,0,1,"",,NaN,NaN,NaN,NaN,NaN,NaN,NaN,NaN,NaN,NaN,NaN,NaN,NaN,,NaN,NaN,NaN,NaN,NaN,NaN,NaN,,NaN,,NaN,,NaN
NaN,NaN,NaN,NaN,NaN,"",NaN,NaN,"",NaN,NaN,NaN,NaN,NaN,NaN,NaN,NaN,NaN,NaN,NaN,NaN,NaN,NaN,NaN,NaN,NaN,NaN,NaN,NaN,NaN,,NaN,NaN,NaN,NaN,NaN,,NaN,NaN,NaN,NaN,NaN,NaN,NaN,,NaN,NaN,NaN,NaN,NaN,NaN,37,1,2020-11-11_16h15.44.514,Pirates_expt3,2020.1.2,Win32,60,NaN,NaN,NaN,NaN,NaN,NaN,NaN,,NaN,NaN,NaN,NaN,NaN,NaN,space,19.571385,6,0,6,0,1,"",,NaN,NaN,NaN,NaN,NaN,NaN,NaN,NaN,NaN,NaN,NaN,NaN,NaN,,NaN,NaN,NaN,NaN,NaN,NaN,NaN,,NaN,,NaN,,NaN
NaN,NaN,NaN,NaN,NaN,"",NaN,NaN,"",NaN,NaN,NaN,NaN,NaN,NaN,NaN,NaN,NaN,NaN,NaN,NaN,NaN,NaN,NaN,NaN,NaN,NaN,NaN,NaN,NaN,,NaN,NaN,NaN,NaN,NaN,,NaN,NaN,NaN,NaN,NaN,NaN,NaN,,NaN,NaN,NaN,NaN,NaN,NaN,37,1,2020-11-11_16h15.44.514,Pirates_expt3,2020.1.2,Win32,60,NaN,NaN,NaN,NaN,NaN,NaN,NaN,,NaN,NaN,NaN,NaN,NaN,NaN,space,7.460555,7,0,7,0,1,"",,NaN,NaN,NaN,NaN,NaN,NaN,NaN,NaN,NaN,NaN,NaN,NaN,NaN,,NaN,NaN,NaN,NaN,NaN,NaN,NaN,,NaN,,NaN,,NaN
NaN,NaN,NaN,NaN,NaN,"",NaN,NaN,"",NaN,NaN,NaN,NaN,NaN,NaN,NaN,NaN,NaN,NaN,NaN,NaN,NaN,NaN,NaN,NaN,NaN,NaN,NaN,NaN,NaN,,NaN,NaN,NaN,NaN,NaN,,NaN,NaN,NaN,NaN,NaN,NaN,NaN,,NaN,NaN,NaN,NaN,NaN,NaN,37,1,2020-11-11_16h15.44.514,Pirates_expt3,2020.1.2,Win32,60,NaN,NaN,NaN,NaN,NaN,NaN,NaN,,NaN,NaN,NaN,NaN,NaN,NaN,space,13.061325,8,0,8,0,1,"",,NaN,NaN,NaN,NaN,NaN,NaN,NaN,NaN,NaN,NaN,NaN,NaN,NaN,,NaN,NaN,NaN,NaN,NaN,NaN,NaN,,NaN,,NaN,,NaN
NaN,NaN,NaN,NaN,NaN,"",NaN,NaN,"",NaN,NaN,NaN,NaN,NaN,NaN,NaN,NaN,NaN,NaN,NaN,NaN,NaN,NaN,NaN,NaN,NaN,NaN,NaN,NaN,NaN,,NaN,NaN,NaN,NaN,NaN,,NaN,NaN,NaN,NaN,NaN,NaN,NaN,,NaN,NaN,NaN,NaN,NaN,NaN,37,1,2020-11-11_16h15.44.514,Pirates_expt3,2020.1.2,Win32,60,NaN,NaN,NaN,NaN,NaN,NaN,NaN,,NaN,NaN,NaN,NaN,NaN,NaN,space,1.64245,9,0,9,0,1,"",,NaN,NaN,NaN,NaN,NaN,NaN,NaN,NaN,NaN,NaN,NaN,NaN,NaN,,NaN,NaN,NaN,NaN,NaN,NaN,NaN,,NaN,,NaN,,NaN
NaN,NaN,NaN,NaN,NaN,"[100,100,100]",NaN,0.05,"[0.05,0.15,0.1]",1,1.5,1,1,0,2,73,73,73,0.05,0.15,0.1,0.15,73,73,73,0.05,0.1,0.15,1,1,j,1.128475,0,0,0,1,N/A,0,0,0,0,1,199,0,,NaN,NaN,NaN,NaN,NaN,NaN,37,1,2020-11-11_16h15.44.514,Pirates_expt3,2020.1.2,Win32,60,NaN,NaN,NaN,NaN,NaN,NaN,NaN,,NaN,NaN,NaN,NaN,NaN,NaN,,NaN,NaN,NaN,NaN,NaN,NaN,"[73,73,73]",return,17.544415,4,0,4,0,1,3,200,0,200,0,1,199,,NaN,NaN,NaN,NaN,NaN,NaN,NaN,,NaN,,NaN,,NaN
NaN,NaN,NaN,NaN,NaN,"",NaN,NaN,"",NaN,NaN,1,1,0,2,74,77,75,0.05,0.15,0.1,0.15,74,75,77,0.05,0.1,0.15,0,2,0,0,0,0,0,1,N/A,0,0,0,0,1,199,0,,NaN,NaN,NaN,NaN,NaN,NaN,37,1,2020-11-11_16h15.44.514,Pirates_expt3,2020.1.2,Win32,60,NaN,NaN,NaN,NaN,NaN,NaN,NaN,,NaN,NaN,NaN,NaN,NaN,NaN,,NaN,NaN,NaN,NaN,NaN,NaN,"",,NaN,4,0,4,0,1,3,200,0,200,0,1,199,j,1.128475,NaN,NaN,NaN,NaN,NaN,NaN,,NaN,,NaN,,NaN
NaN,NaN,NaN,NaN,NaN,"",NaN,NaN,"",NaN,NaN,1,1,0,2,74,77,75,0.05,0.15,0.1,0.15,74,75,77,0.05,0.1,0.15,2,3,0,0,77,77,0,1,space,0.97587,0,0,0,1,199,0,,NaN,NaN,NaN,NaN,NaN,NaN,37,1,2020-11-11_16h15.44.514,Pirates_expt3,2020.1.2,Win32,60,NaN,NaN,NaN,NaN,NaN,NaN,NaN,,NaN,NaN,NaN,NaN,NaN,NaN,,NaN,NaN,NaN,NaN,NaN,NaN,"",,NaN,4,0,4,0,1,3,200,0,200,0,1,199,,NaN,200,0,200,0,1,199,,NaN,,NaN,,NaN
NaN,NaN,NaN,NaN,NaN,"",NaN,NaN,"",NaN,NaN,1,1,38,2,75,77,78,0.05,0.15,0.1,0.15,75,78,77,0.05,0.1,0.15,0,4,0,0,77,77,77,2,0,0,0,38,77,2,198,0,,NaN,NaN,NaN,NaN,NaN,NaN,37,1,2020-11-11_16h15.44.514,Pirates_expt3,2020.1.2,Win32,60,NaN,NaN,NaN,NaN,NaN,NaN,NaN,,NaN,NaN,NaN,NaN,NaN,NaN,,NaN,NaN,NaN,NaN,NaN,NaN,"",,NaN,4,0,4,0,1,3,200,0,200,0,1,199,,NaN,200,0,200,0,1,199,space,0.97587,,NaN,,NaN
NaN,NaN,NaN,NaN,NaN,"",NaN,NaN,"",NaN,NaN,NaN,NaN,NaN,NaN,NaN,NaN,NaN,NaN,NaN,NaN,NaN,NaN,NaN,NaN,NaN,NaN,NaN,NaN,NaN,,NaN,NaN,NaN,NaN,NaN,,NaN,NaN,NaN,NaN,NaN,NaN,NaN,,NaN,NaN,NaN,NaN,NaN,NaN,37,1,2020-11-11_16h15.44.514,Pirates_expt3,2020.1.2,Win32,60,NaN,NaN,NaN,NaN,NaN,NaN,NaN,,NaN,NaN,NaN,NaN,NaN,NaN,,NaN,NaN,NaN,NaN,NaN,NaN,"",,NaN,NaN,NaN,NaN,NaN,NaN,NaN,NaN,NaN,NaN,NaN,NaN,NaN,,NaN,0,0,0,0,1,NaN,,NaN,,NaN,,NaN
NaN,NaN,NaN,NaN,NaN,"",NaN,NaN,"",NaN,NaN,1,1,38,2,75,73,78,0.05,0.15,0.1,0.15,75,78,73,0.05,0.1,0.15,2,3,0,0,73,73,77,2,space,0.596185,0,38,77,2,198,0,,NaN,NaN,NaN,NaN,NaN,NaN,37,1,2020-11-11_16h15.44.514,Pirates_expt3,2020.1.2,Win32,60,NaN,NaN,NaN,NaN,NaN,NaN,NaN,,NaN,NaN,NaN,NaN,NaN,NaN,,NaN,NaN,NaN,NaN,NaN,NaN,"",,NaN,4,0,4,0,1,3,200,0,200,0,1,199,,NaN,200,0,200,0,1,199,,NaN,,NaN,,NaN
NaN,NaN,NaN,NaN,NaN,"",NaN,NaN,"",NaN,NaN,1,1,50,2,76,73,80,0.05,0.15,0.1,0.15,76,80,73,0.05,0.1,0.15,0,4,0,0,73,73,150,3,0,0,0,50,150,3,197,0,,NaN,NaN,NaN,NaN,NaN,NaN,37,1,2020-11-11_16h15.44.514,Pirates_expt3,2020.1.2,Win32,60,NaN,NaN,NaN,NaN,NaN,NaN,NaN,,NaN,NaN,NaN,NaN,NaN,NaN,,NaN,NaN,NaN,NaN,NaN,NaN,"",,NaN,4,0,4,0,1,3,200,0,200,0,1,199,,NaN,200,0,200,0,1,199,space,0.596185,,NaN,,NaN
NaN,NaN,NaN,NaN,NaN,"",NaN,NaN,"",NaN,NaN,NaN,NaN,NaN,NaN,NaN,NaN,NaN,NaN,NaN,NaN,NaN,NaN,NaN,NaN,NaN,NaN,NaN,NaN,NaN,,NaN,NaN,NaN,NaN,NaN,,NaN,NaN,NaN,NaN,NaN,NaN,NaN,,NaN,NaN,NaN,NaN,NaN,NaN,37,1,2020-11-11_16h15.44.514,Pirates_expt3,2020.1.2,Win32,60,NaN,NaN,NaN,NaN,NaN,NaN,NaN,,NaN,NaN,NaN,NaN,NaN,NaN,,NaN,NaN,NaN,NaN,NaN,NaN,"",,NaN,NaN,NaN,NaN,NaN,NaN,NaN,NaN,NaN,NaN,NaN,NaN,NaN,,NaN,1,0,1,0,1,NaN,,NaN,,NaN,,NaN
NaN,NaN,NaN,NaN,NaN,"",NaN,NaN,"",NaN,NaN,1,1,50,2,76,66,80,0.05,0.15,0.1,0.15,76,80,66,0.05,0.1,0.15,2,3,0,0,66,66,150,3,space,0.24135,0,50,150,3,197,0,,NaN,NaN,NaN,NaN,NaN,NaN,37,1,2020-11-11_16h15.44.514,Pirates_expt3,2020.1.2,Win32,60,NaN,NaN,NaN,NaN,NaN,NaN,NaN,,NaN,NaN,NaN,NaN,NaN,NaN,,NaN,NaN,NaN,NaN,NaN,NaN,"",,NaN,4,0,4,0,1,3,200,0,200,0,1,199,,NaN,200,0,200,0,1,199,,NaN,,NaN,,NaN
NaN,NaN,NaN,NaN,NaN,"",NaN,NaN,"",NaN,NaN,1,1,54,2,78,66,82,0.05,0.15,0.1,0.15,78,82,66,0.05,0.1,0.15,0,4,0,0,66,66,216,4,0,0,0,54,216,4,196,0,,NaN,NaN,NaN,NaN,NaN,NaN,37,1,2020-11-11_16h15.44.514,Pirates_expt3,2020.1.2,Win32,60,NaN,NaN,NaN,NaN,NaN,NaN,NaN,,NaN,NaN,NaN,NaN,NaN,NaN,,NaN,NaN,NaN,NaN,NaN,NaN,"",,NaN,4,0,4,0,1,3,200,0,200,0,1,199,,NaN,200,0,200,0,1,199,space,0.24135,,NaN,,NaN
NaN,NaN,NaN,NaN,NaN,"",NaN,NaN,"",NaN,NaN,NaN,NaN,NaN,NaN,NaN,NaN,NaN,NaN,NaN,NaN,NaN,NaN,NaN,NaN,NaN,NaN,NaN,NaN,NaN,,NaN,NaN,NaN,NaN,NaN,,NaN,NaN,NaN,NaN,NaN,NaN,NaN,,NaN,NaN,NaN,NaN,NaN,NaN,37,1,2020-11-11_16h15.44.514,Pirates_expt3,2020.1.2,Win32,60,NaN,NaN,NaN,NaN,NaN,NaN,NaN,,NaN,NaN,NaN,NaN,NaN,NaN,,NaN,NaN,NaN,NaN,NaN,NaN,"",,NaN,NaN,NaN,NaN,NaN,NaN,NaN,NaN,NaN,NaN,NaN,NaN,NaN,,NaN,2,0,2,0,1,NaN,,NaN,,NaN,,NaN
NaN,NaN,NaN,NaN,NaN,"",NaN,NaN,"",NaN,NaN,1,1,54,2,78,56,82,0.05,0.15,0.1,0.15,78,82,56,0.05,0.1,0.15,2,3,0,0,56,56,216,4,space,0.36915,0,54,216,4,196,0,,NaN,NaN,NaN,NaN,NaN,NaN,37,1,2020-11-11_16h15.44.514,Pirates_expt3,2020.1.2,Win32,60,NaN,NaN,NaN,NaN,NaN,NaN,NaN,,NaN,NaN,NaN,NaN,NaN,NaN,,NaN,NaN,NaN,NaN,NaN,NaN,"",,NaN,4,0,4,0,1,3,200,0,200,0,1,199,,NaN,200,0,200,0,1,199,,NaN,,NaN,,NaN
NaN,NaN,NaN,NaN,NaN,"",NaN,NaN,"",NaN,NaN,1,1,54,2,79,56,84,0.05,0.15,0.1,0.15,79,84,56,0.05,0.1,0.15,0,4,0,0,56,56,272,5,0,0,0,54,272,5,195,0,,NaN,NaN,NaN,NaN,NaN,NaN,37,1,2020-11-11_16h15.44.514,Pirates_expt3,2020.1.2,Win32,60,NaN,NaN,NaN,NaN,NaN,NaN,NaN,,NaN,NaN,NaN,NaN,NaN,NaN,,NaN,NaN,NaN,NaN,NaN,NaN,"",,NaN,4,0,4,0,1,3,200,0,200,0,1,199,,NaN,200,0,200,0,1,199,space,0.36915,,NaN,,NaN
NaN,NaN,NaN,NaN,NaN,"",NaN,NaN,"",NaN,NaN,NaN,NaN,NaN,NaN,NaN,NaN,NaN,NaN,NaN,NaN,NaN,NaN,NaN,NaN,NaN,NaN,NaN,NaN,NaN,,NaN,NaN,NaN,NaN,NaN,,NaN,NaN,NaN,NaN,NaN,NaN,NaN,,NaN,NaN,NaN,NaN,NaN,NaN,37,1,2020-11-11_16h15.44.514,Pirates_expt3,2020.1.2,Win32,60,NaN,NaN,NaN,NaN,NaN,NaN,NaN,,NaN,NaN,NaN,NaN,NaN,NaN,,NaN,NaN,NaN,NaN,NaN,NaN,"",,NaN,NaN,NaN,NaN,NaN,NaN,NaN,NaN,NaN,NaN,NaN,NaN,NaN,,NaN,3,0,3,0,1,NaN,,NaN,,NaN,,NaN
NaN,NaN,NaN,NaN,NaN,"",NaN,NaN,"",NaN,NaN,1,1,54,2,79,46,84,0.05,0.15,0.1,0.15,79,84,46,0.05,0.1,0.15,2,3,0,0,46,46,272,5,space,0.412485,0,54,272,5,195,0,,NaN,NaN,NaN,NaN,NaN,NaN,37,1,2020-11-11_16h15.44.514,Pirates_expt3,2020.1.2,Win32,60,NaN,NaN,NaN,NaN,NaN,NaN,NaN,,NaN,NaN,NaN,NaN,NaN,NaN,,NaN,NaN,NaN,NaN,NaN,NaN,"",,NaN,4,0,4,0,1,3,200,0,200,0,1,199,,NaN,200,0,200,0,1,199,,NaN,,NaN,,NaN
NaN,NaN,NaN,NaN,NaN,"",NaN,NaN,"",NaN,NaN,1,1,53,2,80,46,85,0.05,0.15,0.1,0.15,80,85,46,0.05,0.1,0.15,0,4,0,0,46,46,319,6,0,0,0,53,319,6,194,0,,NaN,NaN,NaN,NaN,NaN,NaN,37,1,2020-11-11_16h15.44.514,Pirates_expt3,2020.1.2,Win32,60,NaN,NaN,NaN,NaN,NaN,NaN,NaN,,NaN,NaN,NaN,NaN,NaN,NaN,,NaN,NaN,NaN,NaN,NaN,NaN,"",,NaN,4,0,4,0,1,3,200,0,200,0,1,199,,NaN,200,0,200,0,1,199,space,0.412485,,NaN,,NaN
NaN,NaN,NaN,NaN,NaN,"",NaN,NaN,"",NaN,NaN,NaN,NaN,NaN,NaN,NaN,NaN,NaN,NaN,NaN,NaN,NaN,NaN,NaN,NaN,NaN,NaN,NaN,NaN,NaN,,NaN,NaN,NaN,NaN,NaN,,NaN,NaN,NaN,NaN,NaN,NaN,NaN,,NaN,NaN,NaN,NaN,NaN,NaN,37,1,2020-11-11_16h15.44.514,Pirates_expt3,2020.1.2,Win32,60,NaN,NaN,NaN,NaN,NaN,NaN,NaN,,NaN,NaN,NaN,NaN,NaN,NaN,,NaN,NaN,NaN,NaN,NaN,NaN,"",,NaN,NaN,NaN,NaN,NaN,NaN,NaN,NaN,NaN,NaN,NaN,NaN,NaN,,NaN,4,0,4,0,1,NaN,,NaN,,NaN,,NaN
NaN,NaN,NaN,NaN,NaN,"",NaN,NaN,"",NaN,NaN,1,1,53,2,80,35,85,0.05,0.15,0.1,0.15,80,85,35,0.05,0.1,0.15,2,3,0,0,35,35,319,6,space,0.133805,0,53,319,6,194,0,,NaN,NaN,NaN,NaN,NaN,NaN,37,1,2020-11-11_16h15.44.514,Pirates_expt3,2020.1.2,Win32,60,NaN,NaN,NaN,NaN,NaN,NaN,NaN,,NaN,NaN,NaN,NaN,NaN,NaN,,NaN,NaN,NaN,NaN,NaN,NaN,"",,NaN,4,0,4,0,1,3,200,0,200,0,1,199,,NaN,200,0,200,0,1,199,,NaN,,NaN,,NaN
NaN,NaN,NaN,NaN,NaN,"",NaN,NaN,"",NaN,NaN,1,1,50,2,81,35,87,0.05,0.15,0.1,0.15,81,87,35,0.05,0.1,0.15,0,4,0,0,35,35,354,7,0,0,0,50,354,7,193,0,,NaN,NaN,NaN,NaN,NaN,NaN,37,1,2020-11-11_16h15.44.514,Pirates_expt3,2020.1.2,Win32,60,NaN,NaN,NaN,NaN,NaN,NaN,NaN,,NaN,NaN,NaN,NaN,NaN,NaN,,NaN,NaN,NaN,NaN,NaN,NaN,"",,NaN,4,0,4,0,1,3,200,0,200,0,1,199,,NaN,200,0,200,0,1,199,space,0.133805,,NaN,,NaN
NaN,NaN,NaN,NaN,NaN,"",NaN,NaN,"",NaN,NaN,NaN,NaN,NaN,NaN,NaN,NaN,NaN,NaN,NaN,NaN,NaN,NaN,NaN,NaN,NaN,NaN,NaN,NaN,NaN,,NaN,NaN,NaN,NaN,NaN,,NaN,NaN,NaN,NaN,NaN,NaN,NaN,,NaN,NaN,NaN,NaN,NaN,NaN,37,1,2020-11-11_16h15.44.514,Pirates_expt3,2020.1.2,Win32,60,NaN,NaN,NaN,NaN,NaN,NaN,NaN,,NaN,NaN,NaN,NaN,NaN,NaN,,NaN,NaN,NaN,NaN,NaN,NaN,"",,NaN,NaN,NaN,NaN,NaN,NaN,NaN,NaN,NaN,NaN,NaN,NaN,NaN,,NaN,5,0,5,0,1,NaN,,NaN,,NaN,,NaN
NaN,NaN,NaN,NaN,NaN,"",NaN,NaN,"",NaN,NaN,1,1,50,2,81,26,87,0.05,0.15,0.1,0.15,81,87,26,0.05,0.1,0.15,3,3,0,0,26,26,354,7,s,0.230525,6,50,354,7,193,0,,NaN,NaN,NaN,NaN,NaN,NaN,37,1,2020-11-11_16h15.44.514,Pirates_expt3,2020.1.2,Win32,60,NaN,NaN,NaN,NaN,NaN,NaN,NaN,,NaN,NaN,NaN,NaN,NaN,NaN,,NaN,NaN,NaN,NaN,NaN,NaN,"",,NaN,4,0,4,0,1,3,200,0,200,0,1,199,,NaN,200,0,200,0,1,199,,NaN,,NaN,,NaN
NaN,NaN,NaN,NaN,NaN,"",NaN,NaN,"",NaN,NaN,1,1,44,2,82,37,88,0.05,0.15,0.1,0.15,82,88,37,0.05,0.1,0.15,0,4,0,0,37,26,354,8,0,0,0,44,354,8,192,12.015,,NaN,NaN,NaN,NaN,NaN,NaN,37,1,2020-11-11_16h15.44.514,Pirates_expt3,2020.1.2,Win32,60,NaN,NaN,NaN,NaN,NaN,NaN,NaN,,NaN,NaN,NaN,NaN,NaN,NaN,,NaN,NaN,NaN,NaN,NaN,NaN,"",,NaN,4,0,4,0,1,3,200,0,200,0,1,199,,NaN,200,0,200,0,1,199,s,0.230525,,NaN,,NaN
NaN,NaN,NaN,NaN,NaN,"",NaN,NaN,"",NaN,NaN,NaN,NaN,NaN,NaN,NaN,NaN,NaN,NaN,NaN,NaN,NaN,NaN,NaN,NaN,NaN,NaN,NaN,NaN,NaN,,NaN,NaN,NaN,NaN,NaN,,NaN,NaN,NaN,NaN,NaN,NaN,NaN,,NaN,NaN,NaN,NaN,NaN,NaN,37,1,2020-11-11_16h15.44.514,Pirates_expt3,2020.1.2,Win32,60,NaN,NaN,NaN,NaN,NaN,NaN,NaN,,NaN,NaN,NaN,NaN,NaN,NaN,,NaN,NaN,NaN,NaN,NaN,NaN,"",,NaN,NaN,NaN,NaN,NaN,NaN,NaN,0,0,0,0,1,NaN,,NaN,NaN,NaN,NaN,NaN,NaN,NaN,,NaN,,NaN,,NaN
NaN,NaN,NaN,NaN,NaN,"",NaN,NaN,"",NaN,NaN,1,1,44,1,82,37,88,0.05,0.15,0.1,0.05,82,88,37,0.05,0.1,0.15,1,1,f,1.55863,0,0,354,9,N/A,0,0,44,354,9,191,0,,NaN,NaN,NaN,NaN,NaN,NaN,37,1,2020-11-11_16h15.44.514,Pirates_expt3,2020.1.2,Win32,60,NaN,NaN,NaN,NaN,NaN,NaN,NaN,,NaN,NaN,NaN,NaN,NaN,NaN,,NaN,NaN,NaN,NaN,NaN,NaN,"",,NaN,4,0,4,0,1,3,200,0,200,0,1,199,,NaN,NaN,NaN,NaN,NaN,NaN,NaN,,NaN,,NaN,,NaN
NaN,NaN,NaN,NaN,NaN,"",NaN,NaN,"",NaN,NaN,1,1,44,1,82,46,89,0.05,0.15,0.1,0.05,82,89,46,0.05,0.1,0.15,0,2,0,0,0,0,354,9,N/A,0,0,44,354,9,191,0,,NaN,NaN,NaN,NaN,NaN,NaN,37,1,2020-11-11_16h15.44.514,Pirates_expt3,2020.1.2,Win32,60,NaN,NaN,NaN,NaN,NaN,NaN,NaN,,NaN,NaN,NaN,NaN,NaN,NaN,,NaN,NaN,NaN,NaN,NaN,NaN,"",,NaN,4,0,4,0,1,3,200,0,200,0,1,199,f,1.55863,NaN,NaN,NaN,NaN,NaN,NaN,,NaN,,NaN,,NaN
NaN,NaN,NaN,NaN,NaN,"",NaN,NaN,"",NaN,NaN,1,1,39,1,82,46,89,0.05,0.15,0.1,0.05,82,89,46,0.05,0.1,0.15,2,3,0,0,82,82,354,9,space,0.26381,0,39,354,9,191,0,,NaN,NaN,NaN,NaN,NaN,NaN,37,1,2020-11-11_16h15.44.514,Pirates_expt3,2020.1.2,Win32,60,NaN,NaN,NaN,NaN,NaN,NaN,NaN,,NaN,NaN,NaN,NaN,NaN,NaN,,NaN,NaN,NaN,NaN,NaN,NaN,"",,NaN,4,0,4,0,1,3,200,0,200,0,1,199,,NaN,200,0,200,0,1,199,,NaN,,NaN,,NaN
NaN,NaN,NaN,NaN,NaN,"",NaN,NaN,"",NaN,NaN,1,1,43,1,82,54,90,0.05,0.15,0.1,0.05,82,90,54,0.05,0.1,0.15,0,4,0,0,82,82,437,10,0,0,0,43,437,10,190,0,,NaN,NaN,NaN,NaN,NaN,NaN,37,1,2020-11-11_16h15.44.514,Pirates_expt3,2020.1.2,Win32,60,NaN,NaN,NaN,NaN,NaN,NaN,NaN,,NaN,NaN,NaN,NaN,NaN,NaN,,NaN,NaN,NaN,NaN,NaN,NaN,"",,NaN,4,0,4,0,1,3,200,0,200,0,1,199,,NaN,200,0,200,0,1,199,space,0.26381,,NaN,,NaN
NaN,NaN,NaN,NaN,NaN,"",NaN,NaN,"",NaN,NaN,NaN,NaN,NaN,NaN,NaN,NaN,NaN,NaN,NaN,NaN,NaN,NaN,NaN,NaN,NaN,NaN,NaN,NaN,NaN,,NaN,NaN,NaN,NaN,NaN,,NaN,NaN,NaN,NaN,NaN,NaN,NaN,,NaN,NaN,NaN,NaN,NaN,NaN,37,1,2020-11-11_16h15.44.514,Pirates_expt3,2020.1.2,Win32,60,NaN,NaN,NaN,NaN,NaN,NaN,NaN,,NaN,NaN,NaN,NaN,NaN,NaN,,NaN,NaN,NaN,NaN,NaN,NaN,"",,NaN,NaN,NaN,NaN,NaN,NaN,NaN,NaN,NaN,NaN,NaN,NaN,NaN,,NaN,0,0,0,0,1,NaN,,NaN,,NaN,,NaN
NaN,NaN,NaN,NaN,NaN,"",NaN,NaN,"",NaN,NaN,1,1,43,1,78,54,90,0.05,0.15,0.1,0.05,78,90,54,0.05,0.1,0.15,2,3,0,0,78,78,437,10,space,0.21006,0,43,437,10,190,0,,NaN,NaN,NaN,NaN,NaN,NaN,37,1,2020-11-11_16h15.44.514,Pirates_expt3,2020.1.2,Win32,60,NaN,NaN,NaN,NaN,NaN,NaN,NaN,,NaN,NaN,NaN,NaN,NaN,NaN,,NaN,NaN,NaN,NaN,NaN,NaN,"",,NaN,4,0,4,0,1,3,200,0,200,0,1,199,,NaN,200,0,200,0,1,199,,NaN,,NaN,,NaN
NaN,NaN,NaN,NaN,NaN,"",NaN,NaN,"",NaN,NaN,1,1,46,1,78,61,91,0.05,0.15,0.1,0.05,78,91,61,0.05,0.1,0.15,0,4,0,0,78,78,516,11,0,0,0,46,516,11,189,0,,NaN,NaN,NaN,NaN,NaN,NaN,37,1,2020-11-11_16h15.44.514,Pirates_expt3,2020.1.2,Win32,60,NaN,NaN,NaN,NaN,NaN,NaN,NaN,,NaN,NaN,NaN,NaN,NaN,NaN,,NaN,NaN,NaN,NaN,NaN,NaN,"",,NaN,4,0,4,0,1,3,200,0,200,0,1,199,,NaN,200,0,200,0,1,199,space,0.21006,,NaN,,NaN
NaN,NaN,NaN,NaN,NaN,"",NaN,NaN,"",NaN,NaN,NaN,NaN,NaN,NaN,NaN,NaN,NaN,NaN,NaN,NaN,NaN,NaN,NaN,NaN,NaN,NaN,NaN,NaN,NaN,,NaN,NaN,NaN,NaN,NaN,,NaN,NaN,NaN,NaN,NaN,NaN,NaN,,NaN,NaN,NaN,NaN,NaN,NaN,37,1,2020-11-11_16h15.44.514,Pirates_expt3,2020.1.2,Win32,60,NaN,NaN,NaN,NaN,NaN,NaN,NaN,,NaN,NaN,NaN,NaN,NaN,NaN,,NaN,NaN,NaN,NaN,NaN,NaN,"",,NaN,NaN,NaN,NaN,NaN,NaN,NaN,NaN,NaN,NaN,NaN,NaN,NaN,,NaN,1,0,1,0,1,NaN,,NaN,,NaN,,NaN
NaN,NaN,NaN,NaN,NaN,"",NaN,NaN,"",NaN,NaN,1,1,46,1,71,61,91,0.05,0.15,0.1,0.05,71,91,61,0.05,0.1,0.15,2,3,0,0,71,71,516,11,space,0.337065,0,46,516,11,189,0,,NaN,NaN,NaN,NaN,NaN,NaN,37,1,2020-11-11_16h15.44.514,Pirates_expt3,2020.1.2,Win32,60,NaN,NaN,NaN,NaN,NaN,NaN,NaN,,NaN,NaN,NaN,NaN,NaN,NaN,,NaN,NaN,NaN,NaN,NaN,NaN,"",,NaN,4,0,4,0,1,3,200,0,200,0,1,199,,NaN,200,0,200,0,1,199,,NaN,,NaN,,NaN
NaN,NaN,NaN,NaN,NaN,"",NaN,NaN,"",NaN,NaN,1,1,48,1,71,67,92,0.05,0.15,0.1,0.05,71,92,67,0.05,0.1,0.15,0,4,0,0,71,71,587,12,0,0,0,48,587,12,188,0,,NaN,NaN,NaN,NaN,NaN,NaN,37,1,2020-11-11_16h15.44.514,Pirates_expt3,2020.1.2,Win32,60,NaN,NaN,NaN,NaN,NaN,NaN,NaN,,NaN,NaN,NaN,NaN,NaN,NaN,,NaN,NaN,NaN,NaN,NaN,NaN,"",,NaN,4,0,4,0,1,3,200,0,200,0,1,199,,NaN,200,0,200,0,1,199,space,0.337065,,NaN,,NaN
NaN,NaN,NaN,NaN,NaN,"",NaN,NaN,"",NaN,NaN,NaN,NaN,NaN,NaN,NaN,NaN,NaN,NaN,NaN,NaN,NaN,NaN,NaN,NaN,NaN,NaN,NaN,NaN,NaN,,NaN,NaN,NaN,NaN,NaN,,NaN,NaN,NaN,NaN,NaN,NaN,NaN,,NaN,NaN,NaN,NaN,NaN,NaN,37,1,2020-11-11_16h15.44.514,Pirates_expt3,2020.1.2,Win32,60,NaN,NaN,NaN,NaN,NaN,NaN,NaN,,NaN,NaN,NaN,NaN,NaN,NaN,,NaN,NaN,NaN,NaN,NaN,NaN,"",,NaN,NaN,NaN,NaN,NaN,NaN,NaN,NaN,NaN,NaN,NaN,NaN,NaN,,NaN,2,0,2,0,1,NaN,,NaN,,NaN,,NaN
NaN,NaN,NaN,NaN,NaN,"",NaN,NaN,"",NaN,NaN,1,1,48,1,61,67,92,0.05,0.15,0.1,0.05,61,92,67,0.05,0.1,0.15,2,3,0,0,61,61,587,12,space,0.12279,0,48,587,12,188,0,,NaN,NaN,NaN,NaN,NaN,NaN,37,1,2020-11-11_16h15.44.514,Pirates_expt3,2020.1.2,Win32,60,NaN,NaN,NaN,NaN,NaN,NaN,NaN,,NaN,NaN,NaN,NaN,NaN,NaN,,NaN,NaN,NaN,NaN,NaN,NaN,"",,NaN,4,0,4,0,1,3,200,0,200,0,1,199,,NaN,200,0,200,0,1,199,,NaN,,NaN,,NaN
NaN,NaN,NaN,NaN,NaN,"",NaN,NaN,"",NaN,NaN,1,1,49,1,61,72,93,0.05,0.15,0.1,0.05,61,93,72,0.05,0.1,0.15,0,4,0,0,61,61,648,13,0,0,0,49,648,13,187,0,,NaN,NaN,NaN,NaN,NaN,NaN,37,1,2020-11-11_16h15.44.514,Pirates_expt3,2020.1.2,Win32,60,NaN,NaN,NaN,NaN,NaN,NaN,NaN,,NaN,NaN,NaN,NaN,NaN,NaN,,NaN,NaN,NaN,NaN,NaN,NaN,"",,NaN,4,0,4,0,1,3,200,0,200,0,1,199,,NaN,200,0,200,0,1,199,space,0.12279,,NaN,,NaN
NaN,NaN,NaN,NaN,NaN,"",NaN,NaN,"",NaN,NaN,NaN,NaN,NaN,NaN,NaN,NaN,NaN,NaN,NaN,NaN,NaN,NaN,NaN,NaN,NaN,NaN,NaN,NaN,NaN,,NaN,NaN,NaN,NaN,NaN,,NaN,NaN,NaN,NaN,NaN,NaN,NaN,,NaN,NaN,NaN,NaN,NaN,NaN,37,1,2020-11-11_16h15.44.514,Pirates_expt3,2020.1.2,Win32,60,NaN,NaN,NaN,NaN,NaN,NaN,NaN,,NaN,NaN,NaN,NaN,NaN,NaN,,NaN,NaN,NaN,NaN,NaN,NaN,"",,NaN,NaN,NaN,NaN,NaN,NaN,NaN,NaN,NaN,NaN,NaN,NaN,NaN,,NaN,3,0,3,0,1,NaN,,NaN,,NaN,,NaN
NaN,NaN,NaN,NaN,NaN,"",NaN,NaN,"",NaN,NaN,1,1,49,1,49,72,93,0.05,0.15,0.1,0.05,49,93,72,0.05,0.1,0.15,2,3,0,0,49,49,648,13,space,0.17291,0,49,648,13,187,0,,NaN,NaN,NaN,NaN,NaN,NaN,37,1,2020-11-11_16h15.44.514,Pirates_expt3,2020.1.2,Win32,60,NaN,NaN,NaN,NaN,NaN,NaN,NaN,,NaN,NaN,NaN,NaN,NaN,NaN,,NaN,NaN,NaN,NaN,NaN,NaN,"",,NaN,4,0,4,0,1,3,200,0,200,0,1,199,,NaN,200,0,200,0,1,199,,NaN,,NaN,,NaN
NaN,NaN,NaN,NaN,NaN,"",NaN,NaN,"",NaN,NaN,1,1,49,1,49,76,93,0.05,0.15,0.1,0.05,49,93,76,0.05,0.1,0.15,0,4,0,0,49,49,698,14,0,0,0,49,698,14,186,0,,NaN,NaN,NaN,NaN,NaN,NaN,37,1,2020-11-11_16h15.44.514,Pirates_expt3,2020.1.2,Win32,60,NaN,NaN,NaN,NaN,NaN,NaN,NaN,,NaN,NaN,NaN,NaN,NaN,NaN,,NaN,NaN,NaN,NaN,NaN,NaN,"",,NaN,4,0,4,0,1,3,200,0,200,0,1,199,,NaN,200,0,200,0,1,199,space,0.17291,,NaN,,NaN
NaN,NaN,NaN,NaN,NaN,"",NaN,NaN,"",NaN,NaN,NaN,NaN,NaN,NaN,NaN,NaN,NaN,NaN,NaN,NaN,NaN,NaN,NaN,NaN,NaN,NaN,NaN,NaN,NaN,,NaN,NaN,NaN,NaN,NaN,,NaN,NaN,NaN,NaN,NaN,NaN,NaN,,NaN,NaN,NaN,NaN,NaN,NaN,37,1,2020-11-11_16h15.44.514,Pirates_expt3,2020.1.2,Win32,60,NaN,NaN,NaN,NaN,NaN,NaN,NaN,,NaN,NaN,NaN,NaN,NaN,NaN,,NaN,NaN,NaN,NaN,NaN,NaN,"",,NaN,NaN,NaN,NaN,NaN,NaN,NaN,NaN,NaN,NaN,NaN,NaN,NaN,,NaN,4,0,4,0,1,NaN,,NaN,,NaN,,NaN
NaN,NaN,NaN,NaN,NaN,"",NaN,NaN,"",NaN,NaN,1,1,49,1,38,76,93,0.05,0.15,0.1,0.05,38,93,76,0.05,0.1,0.15,3,3,0,0,38,38,698,14,s,0.068615,5,49,698,14,186,0,,NaN,NaN,NaN,NaN,NaN,NaN,37,1,2020-11-11_16h15.44.514,Pirates_expt3,2020.1.2,Win32,60,NaN,NaN,NaN,NaN,NaN,NaN,NaN,,NaN,NaN,NaN,NaN,NaN,NaN,,NaN,NaN,NaN,NaN,NaN,NaN,"",,NaN,4,0,4,0,1,3,200,0,200,0,1,199,,NaN,200,0,200,0,1,199,,NaN,,NaN,,NaN
NaN,NaN,NaN,NaN,NaN,"",NaN,NaN,"",NaN,NaN,1,1,46,1,41,79,94,0.05,0.15,0.1,0.05,41,94,79,0.05,0.1,0.15,0,4,0,0,41,38,698,15,0,0,0,46,698,15,185,8.721,,NaN,NaN,NaN,NaN,NaN,NaN,37,1,2020-11-11_16h15.44.514,Pirates_expt3,2020.1.2,Win32,60,NaN,NaN,NaN,NaN,NaN,NaN,NaN,,NaN,NaN,NaN,NaN,NaN,NaN,,NaN,NaN,NaN,NaN,NaN,NaN,"",,NaN,4,0,4,0,1,3,200,0,200,0,1,199,,NaN,200,0,200,0,1,199,s,0.068615,,NaN,,NaN
NaN,NaN,NaN,NaN,NaN,"",NaN,NaN,"",NaN,NaN,NaN,NaN,NaN,NaN,NaN,NaN,NaN,NaN,NaN,NaN,NaN,NaN,NaN,NaN,NaN,NaN,NaN,NaN,NaN,,NaN,NaN,NaN,NaN,NaN,,NaN,NaN,NaN,NaN,NaN,NaN,NaN,,NaN,NaN,NaN,NaN,NaN,NaN,37,1,2020-11-11_16h15.44.514,Pirates_expt3,2020.1.2,Win32,60,NaN,NaN,NaN,NaN,NaN,NaN,NaN,,NaN,NaN,NaN,NaN,NaN,NaN,,NaN,NaN,NaN,NaN,NaN,NaN,"",,NaN,NaN,NaN,NaN,NaN,NaN,NaN,1,0,1,0,1,NaN,,NaN,NaN,NaN,NaN,NaN,NaN,NaN,,NaN,,NaN,,NaN
NaN,NaN,NaN,NaN,NaN,"",NaN,NaN,"",NaN,NaN,1,1,46,3,41,79,94,0.05,0.15,0.1,0.1,41,94,79,0.05,0.1,0.15,1,1,k,1.17151,0,0,698,16,N/A,0,0,46,698,16,184,0,,NaN,NaN,NaN,NaN,NaN,NaN,37,1,2020-11-11_16h15.44.514,Pirates_expt3,2020.1.2,Win32,60,NaN,NaN,NaN,NaN,NaN,NaN,NaN,,NaN,NaN,NaN,NaN,NaN,NaN,,NaN,NaN,NaN,NaN,NaN,NaN,"",,NaN,4,0,4,0,1,3,200,0,200,0,1,199,,NaN,NaN,NaN,NaN,NaN,NaN,NaN,,NaN,,NaN,,NaN
NaN,NaN,NaN,NaN,NaN,"",NaN,NaN,"",NaN,NaN,1,1,46,3,44,82,94,0.05,0.15,0.1,0.1,44,94,82,0.05,0.1,0.15,0,2,0,0,0,0,698,16,N/A,0,0,46,698,16,184,0,,NaN,NaN,NaN,NaN,NaN,NaN,37,1,2020-11-11_16h15.44.514,Pirates_expt3,2020.1.2,Win32,60,NaN,NaN,NaN,NaN,NaN,NaN,NaN,,NaN,NaN,NaN,NaN,NaN,NaN,,NaN,NaN,NaN,NaN,NaN,NaN,"",,NaN,4,0,4,0,1,3,200,0,200,0,1,199,k,1.17151,NaN,NaN,NaN,NaN,NaN,NaN,,NaN,,NaN,,NaN
NaN,NaN,NaN,NaN,NaN,"",NaN,NaN,"",NaN,NaN,1,1,43,3,44,82,94,0.05,0.15,0.1,0.1,44,94,82,0.05,0.1,0.15,2,3,0,0,94,94,698,16,space,0.322575,0,43,698,16,184,0,,NaN,NaN,NaN,NaN,NaN,NaN,37,1,2020-11-11_16h15.44.514,Pirates_expt3,2020.1.2,Win32,60,NaN,NaN,NaN,NaN,NaN,NaN,NaN,,NaN,NaN,NaN,NaN,NaN,NaN,,NaN,NaN,NaN,NaN,NaN,NaN,"",,NaN,4,0,4,0,1,3,200,0,200,0,1,199,,NaN,200,0,200,0,1,199,,NaN,,NaN,,NaN
NaN,NaN,NaN,NaN,NaN,"",NaN,NaN,"",NaN,NaN,1,1,46,3,47,85,94,0.05,0.15,0.1,0.1,47,94,85,0.05,0.1,0.15,0,4,0,0,94,94,793,17,0,0,0,46,793,17,183,0,,NaN,NaN,NaN,NaN,NaN,NaN,37,1,2020-11-11_16h15.44.514,Pirates_expt3,2020.1.2,Win32,60,NaN,NaN,NaN,NaN,NaN,NaN,NaN,,NaN,NaN,NaN,NaN,NaN,NaN,,NaN,NaN,NaN,NaN,NaN,NaN,"",,NaN,4,0,4,0,1,3,200,0,200,0,1,199,,NaN,200,0,200,0,1,199,space,0.322575,,NaN,,NaN
NaN,NaN,NaN,NaN,NaN,"",NaN,NaN,"",NaN,NaN,NaN,NaN,NaN,NaN,NaN,NaN,NaN,NaN,NaN,NaN,NaN,NaN,NaN,NaN,NaN,NaN,NaN,NaN,NaN,,NaN,NaN,NaN,NaN,NaN,,NaN,NaN,NaN,NaN,NaN,NaN,NaN,,NaN,NaN,NaN,NaN,NaN,NaN,37,1,2020-11-11_16h15.44.514,Pirates_expt3,2020.1.2,Win32,60,NaN,NaN,NaN,NaN,NaN,NaN,NaN,,NaN,NaN,NaN,NaN,NaN,NaN,,NaN,NaN,NaN,NaN,NaN,NaN,"",,NaN,NaN,NaN,NaN,NaN,NaN,NaN,NaN,NaN,NaN,NaN,NaN,NaN,,NaN,0,0,0,0,1,NaN,,NaN,,NaN,,NaN
NaN,NaN,NaN,NaN,NaN,"",NaN,NaN,"",NaN,NaN,1,1,46,3,47,85,90,0.05,0.15,0.1,0.1,47,90,85,0.05,0.1,0.15,2,3,0,0,90,90,793,17,space,0.24754,0,46,793,17,183,0,,NaN,NaN,NaN,NaN,NaN,NaN,37,1,2020-11-11_16h15.44.514,Pirates_expt3,2020.1.2,Win32,60,NaN,NaN,NaN,NaN,NaN,NaN,NaN,,NaN,NaN,NaN,NaN,NaN,NaN,,NaN,NaN,NaN,NaN,NaN,NaN,"",,NaN,4,0,4,0,1,3,200,0,200,0,1,199,,NaN,200,0,200,0,1,199,,NaN,,NaN,,NaN
NaN,NaN,NaN,NaN,NaN,"",NaN,NaN,"",NaN,NaN,1,1,49,3,49,87,90,0.05,0.15,0.1,0.1,49,90,87,0.05,0.1,0.15,0,4,0,0,90,90,883,18,0,0,0,49,883,18,182,0,,NaN,NaN,NaN,NaN,NaN,NaN,37,1,2020-11-11_16h15.44.514,Pirates_expt3,2020.1.2,Win32,60,NaN,NaN,NaN,NaN,NaN,NaN,NaN,,NaN,NaN,NaN,NaN,NaN,NaN,,NaN,NaN,NaN,NaN,NaN,NaN,"",,NaN,4,0,4,0,1,3,200,0,200,0,1,199,,NaN,200,0,200,0,1,199,space,0.24754,,NaN,,NaN
NaN,NaN,NaN,NaN,NaN,"",NaN,NaN,"",NaN,NaN,NaN,NaN,NaN,NaN,NaN,NaN,NaN,NaN,NaN,NaN,NaN,NaN,NaN,NaN,NaN,NaN,NaN,NaN,NaN,,NaN,NaN,NaN,NaN,NaN,,NaN,NaN,NaN,NaN,NaN,NaN,NaN,,NaN,NaN,NaN,NaN,NaN,NaN,37,1,2020-11-11_16h15.44.514,Pirates_expt3,2020.1.2,Win32,60,NaN,NaN,NaN,NaN,NaN,NaN,NaN,,NaN,NaN,NaN,NaN,NaN,NaN,,NaN,NaN,NaN,NaN,NaN,NaN,"",,NaN,NaN,NaN,NaN,NaN,NaN,NaN,NaN,NaN,NaN,NaN,NaN,NaN,,NaN,1,0,1,0,1,NaN,,NaN,,NaN,,NaN
NaN,NaN,NaN,NaN,NaN,"",NaN,NaN,"",NaN,NaN,1,1,49,3,49,87,81,0.05,0.15,0.1,0.1,49,81,87,0.05,0.1,0.15,2,3,0,0,81,81,883,18,space,0.278195,0,49,883,18,182,0,,NaN,NaN,NaN,NaN,NaN,NaN,37,1,2020-11-11_16h15.44.514,Pirates_expt3,2020.1.2,Win32,60,NaN,NaN,NaN,NaN,NaN,NaN,NaN,,NaN,NaN,NaN,NaN,NaN,NaN,,NaN,NaN,NaN,NaN,NaN,NaN,"",,NaN,4,0,4,0,1,3,200,0,200,0,1,199,,NaN,200,0,200,0,1,199,,NaN,,NaN,,NaN
NaN,NaN,NaN,NaN,NaN,"",NaN,NaN,"",NaN,NaN,1,1,50,3,52,89,81,0.05,0.15,0.1,0.1,52,81,89,0.05,0.1,0.15,0,4,0,0,81,81,965,19,0,0,0,50,965,19,181,0,,NaN,NaN,NaN,NaN,NaN,NaN,37,1,2020-11-11_16h15.44.514,Pirates_expt3,2020.1.2,Win32,60,NaN,NaN,NaN,NaN,NaN,NaN,NaN,,NaN,NaN,NaN,NaN,NaN,NaN,,NaN,NaN,NaN,NaN,NaN,NaN,"",,NaN,4,0,4,0,1,3,200,0,200,0,1,199,,NaN,200,0,200,0,1,199,space,0.278195,,NaN,,NaN
NaN,NaN,NaN,NaN,NaN,"",NaN,NaN,"",NaN,NaN,NaN,NaN,NaN,NaN,NaN,NaN,NaN,NaN,NaN,NaN,NaN,NaN,NaN,NaN,NaN,NaN,NaN,NaN,NaN,,NaN,NaN,NaN,NaN,NaN,,NaN,NaN,NaN,NaN,NaN,NaN,NaN,,NaN,NaN,NaN,NaN,NaN,NaN,37,1,2020-11-11_16h15.44.514,Pirates_expt3,2020.1.2,Win32,60,NaN,NaN,NaN,NaN,NaN,NaN,NaN,,NaN,NaN,NaN,NaN,NaN,NaN,,NaN,NaN,NaN,NaN,NaN,NaN,"",,NaN,NaN,NaN,NaN,NaN,NaN,NaN,NaN,NaN,NaN,NaN,NaN,NaN,,NaN,2,0,2,0,1,NaN,,NaN,,NaN,,NaN
NaN,NaN,NaN,NaN,NaN,"",NaN,NaN,"",NaN,NaN,1,1,50,3,52,89,69,0.05,0.15,0.1,0.1,52,69,89,0.05,0.1,0.15,2,3,0,0,69,69,965,19,space,0.282225,0,50,965,19,181,0,,NaN,NaN,NaN,NaN,NaN,NaN,37,1,2020-11-11_16h15.44.514,Pirates_expt3,2020.1.2,Win32,60,NaN,NaN,NaN,NaN,NaN,NaN,NaN,,NaN,NaN,NaN,NaN,NaN,NaN,,NaN,NaN,NaN,NaN,NaN,NaN,"",,NaN,4,0,4,0,1,3,200,0,200,0,1,199,,NaN,200,0,200,0,1,199,,NaN,,NaN,,NaN
NaN,NaN,NaN,NaN,NaN,"",NaN,NaN,"",NaN,NaN,1,1,51,3,54,91,69,0.05,0.15,0.1,0.1,54,69,91,0.05,0.1,0.15,0,4,0,0,69,69,1034,20,0,0,0,51,1034,20,180,0,,NaN,NaN,NaN,NaN,NaN,NaN,37,1,2020-11-11_16h15.44.514,Pirates_expt3,2020.1.2,Win32,60,NaN,NaN,NaN,NaN,NaN,NaN,NaN,,NaN,NaN,NaN,NaN,NaN,NaN,,NaN,NaN,NaN,NaN,NaN,NaN,"",,NaN,4,0,4,0,1,3,200,0,200,0,1,199,,NaN,200,0,200,0,1,199,space,0.282225,,NaN,,NaN
NaN,NaN,NaN,NaN,NaN,"",NaN,NaN,"",NaN,NaN,NaN,NaN,NaN,NaN,NaN,NaN,NaN,NaN,NaN,NaN,NaN,NaN,NaN,NaN,NaN,NaN,NaN,NaN,NaN,,NaN,NaN,NaN,NaN,NaN,,NaN,NaN,NaN,NaN,NaN,NaN,NaN,,NaN,NaN,NaN,NaN,NaN,NaN,37,1,2020-11-11_16h15.44.514,Pirates_expt3,2020.1.2,Win32,60,NaN,NaN,NaN,NaN,NaN,NaN,NaN,,NaN,NaN,NaN,NaN,NaN,NaN,,NaN,NaN,NaN,NaN,NaN,NaN,"",,NaN,NaN,NaN,NaN,NaN,NaN,NaN,NaN,NaN,NaN,NaN,NaN,NaN,,NaN,3,0,3,0,1,NaN,,NaN,,NaN,,NaN
NaN,NaN,NaN,NaN,NaN,"",NaN,NaN,"",NaN,NaN,1,1,51,3,54,91,56,0.05,0.15,0.1,0.1,54,56,91,0.05,0.1,0.15,2,3,0,0,56,56,1034,20,space,0.193555,0,51,1034,20,180,0,,NaN,NaN,NaN,NaN,NaN,NaN,37,1,2020-11-11_16h15.44.514,Pirates_expt3,2020.1.2,Win32,60,NaN,NaN,NaN,NaN,NaN,NaN,NaN,,NaN,NaN,NaN,NaN,NaN,NaN,,NaN,NaN,NaN,NaN,NaN,NaN,"",,NaN,4,0,4,0,1,3,200,0,200,0,1,199,,NaN,200,0,200,0,1,199,,NaN,,NaN,,NaN
NaN,NaN,NaN,NaN,NaN,"",NaN,NaN,"",NaN,NaN,1,1,51,3,57,92,56,0.05,0.15,0.1,0.1,57,56,92,0.05,0.1,0.15,0,4,0,0,56,56,1091,21,0,0,0,51,1091,21,179,0,,NaN,NaN,NaN,NaN,NaN,NaN,37,1,2020-11-11_16h15.44.514,Pirates_expt3,2020.1.2,Win32,60,NaN,NaN,NaN,NaN,NaN,NaN,NaN,,NaN,NaN,NaN,NaN,NaN,NaN,,NaN,NaN,NaN,NaN,NaN,NaN,"",,NaN,4,0,4,0,1,3,200,0,200,0,1,199,,NaN,200,0,200,0,1,199,space,0.193555,,NaN,,NaN
NaN,NaN,NaN,NaN,NaN,"",NaN,NaN,"",NaN,NaN,NaN,NaN,NaN,NaN,NaN,NaN,NaN,NaN,NaN,NaN,NaN,NaN,NaN,NaN,NaN,NaN,NaN,NaN,NaN,,NaN,NaN,NaN,NaN,NaN,,NaN,NaN,NaN,NaN,NaN,NaN,NaN,,NaN,NaN,NaN,NaN,NaN,NaN,37,1,2020-11-11_16h15.44.514,Pirates_expt3,2020.1.2,Win32,60,NaN,NaN,NaN,NaN,NaN,NaN,NaN,,NaN,NaN,NaN,NaN,NaN,NaN,,NaN,NaN,NaN,NaN,NaN,NaN,"",,NaN,NaN,NaN,NaN,NaN,NaN,NaN,NaN,NaN,NaN,NaN,NaN,NaN,,NaN,4,0,4,0,1,NaN,,NaN,,NaN,,NaN
NaN,NaN,NaN,NaN,NaN,"",NaN,NaN,"",NaN,NaN,1,1,51,3,57,92,44,0.05,0.15,0.1,0.1,57,44,92,0.05,0.1,0.15,2,3,0,0,44,44,1091,21,space,0.00453,0,51,1091,21,179,0,,NaN,NaN,NaN,NaN,NaN,NaN,37,1,2020-11-11_16h15.44.514,Pirates_expt3,2020.1.2,Win32,60,NaN,NaN,NaN,NaN,NaN,NaN,NaN,,NaN,NaN,NaN,NaN,NaN,NaN,,NaN,NaN,NaN,NaN,NaN,NaN,"",,NaN,4,0,4,0,1,3,200,0,200,0,1,199,,NaN,200,0,200,0,1,199,,NaN,,NaN,,NaN
NaN,NaN,NaN,NaN,NaN,"",NaN,NaN,"",NaN,NaN,1,1,51,3,59,93,44,0.05,0.15,0.1,0.1,59,44,93,0.05,0.1,0.15,0,4,0,0,44,44,1135,22,0,0,0,51,1135,22,178,0,,NaN,NaN,NaN,NaN,NaN,NaN,37,1,2020-11-11_16h15.44.514,Pirates_expt3,2020.1.2,Win32,60,NaN,NaN,NaN,NaN,NaN,NaN,NaN,,NaN,NaN,NaN,NaN,NaN,NaN,,NaN,NaN,NaN,NaN,NaN,NaN,"",,NaN,4,0,4,0,1,3,200,0,200,0,1,199,,NaN,200,0,200,0,1,199,space,0.00453,,NaN,,NaN
NaN,NaN,NaN,NaN,NaN,"",NaN,NaN,"",NaN,NaN,NaN,NaN,NaN,NaN,NaN,NaN,NaN,NaN,NaN,NaN,NaN,NaN,NaN,NaN,NaN,NaN,NaN,NaN,NaN,,NaN,NaN,NaN,NaN,NaN,,NaN,NaN,NaN,NaN,NaN,NaN,NaN,,NaN,NaN,NaN,NaN,NaN,NaN,37,1,2020-11-11_16h15.44.514,Pirates_expt3,2020.1.2,Win32,60,NaN,NaN,NaN,NaN,NaN,NaN,NaN,,NaN,NaN,NaN,NaN,NaN,NaN,,NaN,NaN,NaN,NaN,NaN,NaN,"",,NaN,NaN,NaN,NaN,NaN,NaN,NaN,NaN,NaN,NaN,NaN,NaN,NaN,,NaN,5,0,5,0,1,NaN,,NaN,,NaN,,NaN
NaN,NaN,NaN,NaN,NaN,"",NaN,NaN,"",NaN,NaN,1,1,51,3,59,93,32,0.05,0.15,0.1,0.1,59,32,93,0.05,0.1,0.15,3,3,0,0,32,32,1135,22,s,0.33745,6,51,1135,22,178,0,,NaN,NaN,NaN,NaN,NaN,NaN,37,1,2020-11-11_16h15.44.514,Pirates_expt3,2020.1.2,Win32,60,NaN,NaN,NaN,NaN,NaN,NaN,NaN,,NaN,NaN,NaN,NaN,NaN,NaN,,NaN,NaN,NaN,NaN,NaN,NaN,"",,NaN,4,0,4,0,1,3,200,0,200,0,1,199,,NaN,200,0,200,0,1,199,,NaN,,NaN,,NaN
NaN,NaN,NaN,NaN,NaN,"",NaN,NaN,"",NaN,NaN,1,1,49,3,61,94,39,0.05,0.15,0.1,0.1,61,39,94,0.05,0.1,0.15,0,4,0,0,39,32,1135,23,0,0,0,49,1135,23,177,10.714,,NaN,NaN,NaN,NaN,NaN,NaN,37,1,2020-11-11_16h15.44.514,Pirates_expt3,2020.1.2,Win32,60,NaN,NaN,NaN,NaN,NaN,NaN,NaN,,NaN,NaN,NaN,NaN,NaN,NaN,,NaN,NaN,NaN,NaN,NaN,NaN,"",,NaN,4,0,4,0,1,3,200,0,200,0,1,199,,NaN,200,0,200,0,1,199,s,0.33745,,NaN,,NaN
NaN,NaN,NaN,NaN,NaN,"",NaN,NaN,"",NaN,NaN,NaN,NaN,NaN,NaN,NaN,NaN,NaN,NaN,NaN,NaN,NaN,NaN,NaN,NaN,NaN,NaN,NaN,NaN,NaN,,NaN,NaN,NaN,NaN,NaN,,NaN,NaN,NaN,NaN,NaN,NaN,NaN,,NaN,NaN,NaN,NaN,NaN,NaN,37,1,2020-11-11_16h15.44.514,Pirates_expt3,2020.1.2,Win32,60,NaN,NaN,NaN,NaN,NaN,NaN,NaN,,NaN,NaN,NaN,NaN,NaN,NaN,,NaN,NaN,NaN,NaN,NaN,NaN,"",,NaN,NaN,NaN,NaN,NaN,NaN,NaN,2,0,2,0,1,NaN,,NaN,NaN,NaN,NaN,NaN,NaN,NaN,,NaN,,NaN,,NaN
NaN,NaN,NaN,NaN,NaN,"",NaN,NaN,"",NaN,NaN,1,1,49,1,61,94,39,0.05,0.15,0.1,0.05,61,39,94,0.05,0.1,0.15,1,1,f,1.504225,0,0,1135,24,N/A,0,0,49,1135,24,176,0,,NaN,NaN,NaN,NaN,NaN,NaN,37,1,2020-11-11_16h15.44.514,Pirates_expt3,2020.1.2,Win32,60,NaN,NaN,NaN,NaN,NaN,NaN,NaN,,NaN,NaN,NaN,NaN,NaN,NaN,,NaN,NaN,NaN,NaN,NaN,NaN,"",,NaN,4,0,4,0,1,3,200,0,200,0,1,199,,NaN,NaN,NaN,NaN,NaN,NaN,NaN,,NaN,,NaN,,NaN
NaN,NaN,NaN,NaN,NaN,"",NaN,NaN,"",NaN,NaN,1,1,49,1,63,95,45,0.05,0.15,0.1,0.05,63,45,95,0.05,0.1,0.15,0,2,0,0,0,0,1135,24,N/A,0,0,49,1135,24,176,0,,NaN,NaN,NaN,NaN,NaN,NaN,37,1,2020-11-11_16h15.44.514,Pirates_expt3,2020.1.2,Win32,60,NaN,NaN,NaN,NaN,NaN,NaN,NaN,,NaN,NaN,NaN,NaN,NaN,NaN,,NaN,NaN,NaN,NaN,NaN,NaN,"",,NaN,4,0,4,0,1,3,200,0,200,0,1,199,f,1.504225,NaN,NaN,NaN,NaN,NaN,NaN,,NaN,,NaN,,NaN
NaN,NaN,NaN,NaN,NaN,"",NaN,NaN,"",NaN,NaN,1,1,47,1,63,95,45,0.05,0.15,0.1,0.05,63,45,95,0.05,0.1,0.15,2,3,0,0,63,63,1135,24,space,0.325425,0,47,1135,24,176,0,,NaN,NaN,NaN,NaN,NaN,NaN,37,1,2020-11-11_16h15.44.514,Pirates_expt3,2020.1.2,Win32,60,NaN,NaN,NaN,NaN,NaN,NaN,NaN,,NaN,NaN,NaN,NaN,NaN,NaN,,NaN,NaN,NaN,NaN,NaN,NaN,"",,NaN,4,0,4,0,1,3,200,0,200,0,1,199,,NaN,200,0,200,0,1,199,,NaN,,NaN,,NaN
NaN,NaN,NaN,NaN,NaN,"",NaN,NaN,"",NaN,NaN,1,1,47,1,63,96,50,0.05,0.15,0.1,0.05,63,50,96,0.05,0.1,0.15,0,4,0,0,63,63,1198,25,0,0,0,47,1198,25,175,0,,NaN,NaN,NaN,NaN,NaN,NaN,37,1,2020-11-11_16h15.44.514,Pirates_expt3,2020.1.2,Win32,60,NaN,NaN,NaN,NaN,NaN,NaN,NaN,,NaN,NaN,NaN,NaN,NaN,NaN,,NaN,NaN,NaN,NaN,NaN,NaN,"",,NaN,4,0,4,0,1,3,200,0,200,0,1,199,,NaN,200,0,200,0,1,199,space,0.325425,,NaN,,NaN
NaN,NaN,NaN,NaN,NaN,"",NaN,NaN,"",NaN,NaN,NaN,NaN,NaN,NaN,NaN,NaN,NaN,NaN,NaN,NaN,NaN,NaN,NaN,NaN,NaN,NaN,NaN,NaN,NaN,,NaN,NaN,NaN,NaN,NaN,,NaN,NaN,NaN,NaN,NaN,NaN,NaN,,NaN,NaN,NaN,NaN,NaN,NaN,37,1,2020-11-11_16h15.44.514,Pirates_expt3,2020.1.2,Win32,60,NaN,NaN,NaN,NaN,NaN,NaN,NaN,,NaN,NaN,NaN,NaN,NaN,NaN,,NaN,NaN,NaN,NaN,NaN,NaN,"",,NaN,NaN,NaN,NaN,NaN,NaN,NaN,NaN,NaN,NaN,NaN,NaN,NaN,,NaN,0,0,0,0,1,NaN,,NaN,,NaN,,NaN
NaN,NaN,NaN,NaN,NaN,"",NaN,NaN,"",NaN,NaN,1,1,47,1,59,96,50,0.05,0.15,0.1,0.05,59,50,96,0.05,0.1,0.15,2,3,0,0,59,59,1198,25,space,0.025075,0,47,1198,25,175,0,,NaN,NaN,NaN,NaN,NaN,NaN,37,1,2020-11-11_16h15.44.514,Pirates_expt3,2020.1.2,Win32,60,NaN,NaN,NaN,NaN,NaN,NaN,NaN,,NaN,NaN,NaN,NaN,NaN,NaN,,NaN,NaN,NaN,NaN,NaN,NaN,"",,NaN,4,0,4,0,1,3,200,0,200,0,1,199,,NaN,200,0,200,0,1,199,,NaN,,NaN,,NaN
NaN,NaN,NaN,NaN,NaN,"",NaN,NaN,"",NaN,NaN,1,1,48,1,59,96,55,0.05,0.15,0.1,0.05,59,55,96,0.05,0.1,0.15,0,4,0,0,59,59,1258,26,0,0,0,48,1258,26,174,0,,NaN,NaN,NaN,NaN,NaN,NaN,37,1,2020-11-11_16h15.44.514,Pirates_expt3,2020.1.2,Win32,60,NaN,NaN,NaN,NaN,NaN,NaN,NaN,,NaN,NaN,NaN,NaN,NaN,NaN,,NaN,NaN,NaN,NaN,NaN,NaN,"",,NaN,4,0,4,0,1,3,200,0,200,0,1,199,,NaN,200,0,200,0,1,199,space,0.025075,,NaN,,NaN
NaN,NaN,NaN,NaN,NaN,"",NaN,NaN,"",NaN,NaN,NaN,NaN,NaN,NaN,NaN,NaN,NaN,NaN,NaN,NaN,NaN,NaN,NaN,NaN,NaN,NaN,NaN,NaN,NaN,,NaN,NaN,NaN,NaN,NaN,,NaN,NaN,NaN,NaN,NaN,NaN,NaN,,NaN,NaN,NaN,NaN,NaN,NaN,37,1,2020-11-11_16h15.44.514,Pirates_expt3,2020.1.2,Win32,60,NaN,NaN,NaN,NaN,NaN,NaN,NaN,,NaN,NaN,NaN,NaN,NaN,NaN,,NaN,NaN,NaN,NaN,NaN,NaN,"",,NaN,NaN,NaN,NaN,NaN,NaN,NaN,NaN,NaN,NaN,NaN,NaN,NaN,,NaN,1,0,1,0,1,NaN,,NaN,,NaN,,NaN
NaN,NaN,NaN,NaN,NaN,"",NaN,NaN,"",NaN,NaN,1,1,48,1,54,96,55,0.05,0.15,0.1,0.05,54,55,96,0.05,0.1,0.15,2,3,0,0,54,54,1258,26,space,0.341605,0,48,1258,26,174,0,,NaN,NaN,NaN,NaN,NaN,NaN,37,1,2020-11-11_16h15.44.514,Pirates_expt3,2020.1.2,Win32,60,NaN,NaN,NaN,NaN,NaN,NaN,NaN,,NaN,NaN,NaN,NaN,NaN,NaN,,NaN,NaN,NaN,NaN,NaN,NaN,"",,NaN,4,0,4,0,1,3,200,0,200,0,1,199,,NaN,200,0,200,0,1,199,,NaN,,NaN,,NaN
NaN,NaN,NaN,NaN,NaN,"",NaN,NaN,"",NaN,NaN,1,1,48,1,54,97,60,0.05,0.15,0.1,0.05,54,60,97,0.05,0.1,0.15,0,4,0,0,54,54,1313,27,0,0,0,48,1313,27,173,0,,NaN,NaN,NaN,NaN,NaN,NaN,37,1,2020-11-11_16h15.44.514,Pirates_expt3,2020.1.2,Win32,60,NaN,NaN,NaN,NaN,NaN,NaN,NaN,,NaN,NaN,NaN,NaN,NaN,NaN,,NaN,NaN,NaN,NaN,NaN,NaN,"",,NaN,4,0,4,0,1,3,200,0,200,0,1,199,,NaN,200,0,200,0,1,199,space,0.341605,,NaN,,NaN
NaN,NaN,NaN,NaN,NaN,"",NaN,NaN,"",NaN,NaN,NaN,NaN,NaN,NaN,NaN,NaN,NaN,NaN,NaN,NaN,NaN,NaN,NaN,NaN,NaN,NaN,NaN,NaN,NaN,,NaN,NaN,NaN,NaN,NaN,,NaN,NaN,NaN,NaN,NaN,NaN,NaN,,NaN,NaN,NaN,NaN,NaN,NaN,37,1,2020-11-11_16h15.44.514,Pirates_expt3,2020.1.2,Win32,60,NaN,NaN,NaN,NaN,NaN,NaN,NaN,,NaN,NaN,NaN,NaN,NaN,NaN,,NaN,NaN,NaN,NaN,NaN,NaN,"",,NaN,NaN,NaN,NaN,NaN,NaN,NaN,NaN,NaN,NaN,NaN,NaN,NaN,,NaN,2,0,2,0,1,NaN,,NaN,,NaN,,NaN
NaN,NaN,NaN,NaN,NaN,"",NaN,NaN,"",NaN,NaN,1,1,48,1,46,97,60,0.05,0.15,0.1,0.05,46,60,97,0.05,0.1,0.15,2,3,0,0,46,46,1313,27,space,0.119395,0,48,1313,27,173,0,,NaN,NaN,NaN,NaN,NaN,NaN,37,1,2020-11-11_16h15.44.514,Pirates_expt3,2020.1.2,Win32,60,NaN,NaN,NaN,NaN,NaN,NaN,NaN,,NaN,NaN,NaN,NaN,NaN,NaN,,NaN,NaN,NaN,NaN,NaN,NaN,"",,NaN,4,0,4,0,1,3,200,0,200,0,1,199,,NaN,200,0,200,0,1,199,,NaN,,NaN,,NaN
NaN,NaN,NaN,NaN,NaN,"",NaN,NaN,"",NaN,NaN,1,1,48,1,46,97,64,0.05,0.15,0.1,0.05,46,64,97,0.05,0.1,0.15,0,4,0,0,46,46,1359,28,0,0,0,48,1359,28,172,0,,NaN,NaN,NaN,NaN,NaN,NaN,37,1,2020-11-11_16h15.44.514,Pirates_expt3,2020.1.2,Win32,60,NaN,NaN,NaN,NaN,NaN,NaN,NaN,,NaN,NaN,NaN,NaN,NaN,NaN,,NaN,NaN,NaN,NaN,NaN,NaN,"",,NaN,4,0,4,0,1,3,200,0,200,0,1,199,,NaN,200,0,200,0,1,199,space,0.119395,,NaN,,NaN
NaN,NaN,NaN,NaN,NaN,"",NaN,NaN,"",NaN,NaN,NaN,NaN,NaN,NaN,NaN,NaN,NaN,NaN,NaN,NaN,NaN,NaN,NaN,NaN,NaN,NaN,NaN,NaN,NaN,,NaN,NaN,NaN,NaN,NaN,,NaN,NaN,NaN,NaN,NaN,NaN,NaN,,NaN,NaN,NaN,NaN,NaN,NaN,37,1,2020-11-11_16h15.44.514,Pirates_expt3,2020.1.2,Win32,60,NaN,NaN,NaN,NaN,NaN,NaN,NaN,,NaN,NaN,NaN,NaN,NaN,NaN,,NaN,NaN,NaN,NaN,NaN,NaN,"",,NaN,NaN,NaN,NaN,NaN,NaN,NaN,NaN,NaN,NaN,NaN,NaN,NaN,,NaN,3,0,3,0,1,NaN,,NaN,,NaN,,NaN
NaN,NaN,NaN,NaN,NaN,"",NaN,NaN,"",NaN,NaN,1,1,48,1,37,97,64,0.05,0.15,0.1,0.05,37,64,97,0.05,0.1,0.15,3,3,0,0,37,37,1359,28,s,0.294595,4,48,1359,28,172,0,,NaN,NaN,NaN,NaN,NaN,NaN,37,1,2020-11-11_16h15.44.514,Pirates_expt3,2020.1.2,Win32,60,NaN,NaN,NaN,NaN,NaN,NaN,NaN,,NaN,NaN,NaN,NaN,NaN,NaN,,NaN,NaN,NaN,NaN,NaN,NaN,"",,NaN,4,0,4,0,1,3,200,0,200,0,1,199,,NaN,200,0,200,0,1,199,,NaN,,NaN,,NaN
NaN,NaN,NaN,NaN,NaN,"",NaN,NaN,"",NaN,NaN,1,1,46,1,40,97,67,0.05,0.15,0.1,0.05,40,67,97,0.05,0.1,0.15,0,4,0,0,40,37,1359,29,0,0,0,46,1359,29,171,7.141,,NaN,NaN,NaN,NaN,NaN,NaN,37,1,2020-11-11_16h15.44.514,Pirates_expt3,2020.1.2,Win32,60,NaN,NaN,NaN,NaN,NaN,NaN,NaN,,NaN,NaN,NaN,NaN,NaN,NaN,,NaN,NaN,NaN,NaN,NaN,NaN,"",,NaN,4,0,4,0,1,3,200,0,200,0,1,199,,NaN,200,0,200,0,1,199,s,0.294595,,NaN,,NaN
NaN,NaN,NaN,NaN,NaN,"",NaN,NaN,"",NaN,NaN,NaN,NaN,NaN,NaN,NaN,NaN,NaN,NaN,NaN,NaN,NaN,NaN,NaN,NaN,NaN,NaN,NaN,NaN,NaN,,NaN,NaN,NaN,NaN,NaN,,NaN,NaN,NaN,NaN,NaN,NaN,NaN,,NaN,NaN,NaN,NaN,NaN,NaN,37,1,2020-11-11_16h15.44.514,Pirates_expt3,2020.1.2,Win32,60,NaN,NaN,NaN,NaN,NaN,NaN,NaN,,NaN,NaN,NaN,NaN,NaN,NaN,,NaN,NaN,NaN,NaN,NaN,NaN,"",,NaN,NaN,NaN,NaN,NaN,NaN,NaN,3,0,3,0,1,NaN,,NaN,NaN,NaN,NaN,NaN,NaN,NaN,,NaN,,NaN,,NaN
NaN,NaN,NaN,NaN,NaN,"",NaN,NaN,"",NaN,NaN,1,1,46,2,40,97,67,0.05,0.15,0.1,0.15,40,67,97,0.05,0.1,0.15,1,1,j,0.792595,0,0,1359,30,N/A,0,0,46,1359,30,170,0,,NaN,NaN,NaN,NaN,NaN,NaN,37,1,2020-11-11_16h15.44.514,Pirates_expt3,2020.1.2,Win32,60,NaN,NaN,NaN,NaN,NaN,NaN,NaN,,NaN,NaN,NaN,NaN,NaN,NaN,,NaN,NaN,NaN,NaN,NaN,NaN,"",,NaN,4,0,4,0,1,3,200,0,200,0,1,199,,NaN,NaN,NaN,NaN,NaN,NaN,NaN,,NaN,,NaN,,NaN
NaN,NaN,NaN,NaN,NaN,"",NaN,NaN,"",NaN,NaN,1,1,46,2,43,98,70,0.05,0.15,0.1,0.15,43,70,98,0.05,0.1,0.15,0,2,0,0,0,0,1359,30,N/A,0,0,46,1359,30,170,0,,NaN,NaN,NaN,NaN,NaN,NaN,37,1,2020-11-11_16h15.44.514,Pirates_expt3,2020.1.2,Win32,60,NaN,NaN,NaN,NaN,NaN,NaN,NaN,,NaN,NaN,NaN,NaN,NaN,NaN,,NaN,NaN,NaN,NaN,NaN,NaN,"",,NaN,4,0,4,0,1,3,200,0,200,0,1,199,j,0.792595,NaN,NaN,NaN,NaN,NaN,NaN,,NaN,,NaN,,NaN
NaN,NaN,NaN,NaN,NaN,"",NaN,NaN,"",NaN,NaN,1,1,45,2,43,98,70,0.05,0.15,0.1,0.15,43,70,98,0.05,0.1,0.15,2,3,0,0,98,98,1359,30,space,0.3288,0,45,1359,30,170,0,,NaN,NaN,NaN,NaN,NaN,NaN,37,1,2020-11-11_16h15.44.514,Pirates_expt3,2020.1.2,Win32,60,NaN,NaN,NaN,NaN,NaN,NaN,NaN,,NaN,NaN,NaN,NaN,NaN,NaN,,NaN,NaN,NaN,NaN,NaN,NaN,"",,NaN,4,0,4,0,1,3,200,0,200,0,1,199,,NaN,200,0,200,0,1,199,,NaN,,NaN,,NaN
NaN,NaN,NaN,NaN,NaN,"",NaN,NaN,"",NaN,NaN,1,1,47,2,46,98,73,0.05,0.15,0.1,0.15,46,73,98,0.05,0.1,0.15,0,4,0,0,98,98,1457,31,0,0,0,47,1457,31,169,0,,NaN,NaN,NaN,NaN,NaN,NaN,37,1,2020-11-11_16h15.44.514,Pirates_expt3,2020.1.2,Win32,60,NaN,NaN,NaN,NaN,NaN,NaN,NaN,,NaN,NaN,NaN,NaN,NaN,NaN,,NaN,NaN,NaN,NaN,NaN,NaN,"",,NaN,4,0,4,0,1,3,200,0,200,0,1,199,,NaN,200,0,200,0,1,199,space,0.3288,,NaN,,NaN
NaN,NaN,NaN,NaN,NaN,"",NaN,NaN,"",NaN,NaN,NaN,NaN,NaN,NaN,NaN,NaN,NaN,NaN,NaN,NaN,NaN,NaN,NaN,NaN,NaN,NaN,NaN,NaN,NaN,,NaN,NaN,NaN,NaN,NaN,,NaN,NaN,NaN,NaN,NaN,NaN,NaN,,NaN,NaN,NaN,NaN,NaN,NaN,37,1,2020-11-11_16h15.44.514,Pirates_expt3,2020.1.2,Win32,60,NaN,NaN,NaN,NaN,NaN,NaN,NaN,,NaN,NaN,NaN,NaN,NaN,NaN,,NaN,NaN,NaN,NaN,NaN,NaN,"",,NaN,NaN,NaN,NaN,NaN,NaN,NaN,NaN,NaN,NaN,NaN,NaN,NaN,,NaN,0,0,0,0,1,NaN,,NaN,,NaN,,NaN
NaN,NaN,NaN,NaN,NaN,"",NaN,NaN,"",NaN,NaN,1,1,47,2,46,93,73,0.05,0.15,0.1,0.15,46,73,93,0.05,0.1,0.15,2,3,0,0,93,93,1457,31,space,0.39766,0,47,1457,31,169,0,,NaN,NaN,NaN,NaN,NaN,NaN,37,1,2020-11-11_16h15.44.514,Pirates_expt3,2020.1.2,Win32,60,NaN,NaN,NaN,NaN,NaN,NaN,NaN,,NaN,NaN,NaN,NaN,NaN,NaN,,NaN,NaN,NaN,NaN,NaN,NaN,"",,NaN,4,0,4,0,1,3,200,0,200,0,1,199,,NaN,200,0,200,0,1,199,,NaN,,NaN,,NaN
NaN,NaN,NaN,NaN,NaN,"",NaN,NaN,"",NaN,NaN,1,1,48,2,49,93,76,0.05,0.15,0.1,0.15,49,76,93,0.05,0.1,0.15,0,4,0,0,93,93,1551,32,0,0,0,48,1551,32,168,0,,NaN,NaN,NaN,NaN,NaN,NaN,37,1,2020-11-11_16h15.44.514,Pirates_expt3,2020.1.2,Win32,60,NaN,NaN,NaN,NaN,NaN,NaN,NaN,,NaN,NaN,NaN,NaN,NaN,NaN,,NaN,NaN,NaN,NaN,NaN,NaN,"",,NaN,4,0,4,0,1,3,200,0,200,0,1,199,,NaN,200,0,200,0,1,199,space,0.39766,,NaN,,NaN
NaN,NaN,NaN,NaN,NaN,"",NaN,NaN,"",NaN,NaN,NaN,NaN,NaN,NaN,NaN,NaN,NaN,NaN,NaN,NaN,NaN,NaN,NaN,NaN,NaN,NaN,NaN,NaN,NaN,,NaN,NaN,NaN,NaN,NaN,,NaN,NaN,NaN,NaN,NaN,NaN,NaN,,NaN,NaN,NaN,NaN,NaN,NaN,37,1,2020-11-11_16h15.44.514,Pirates_expt3,2020.1.2,Win32,60,NaN,NaN,NaN,NaN,NaN,NaN,NaN,,NaN,NaN,NaN,NaN,NaN,NaN,,NaN,NaN,NaN,NaN,NaN,NaN,"",,NaN,NaN,NaN,NaN,NaN,NaN,NaN,NaN,NaN,NaN,NaN,NaN,NaN,,NaN,1,0,1,0,1,NaN,,NaN,,NaN,,NaN
NaN,NaN,NaN,NaN,NaN,"",NaN,NaN,"",NaN,NaN,1,1,48,2,49,84,76,0.05,0.15,0.1,0.15,49,76,84,0.05,0.1,0.15,2,3,0,0,84,84,1551,32,space,0.282545,0,48,1551,32,168,0,,NaN,NaN,NaN,NaN,NaN,NaN,37,1,2020-11-11_16h15.44.514,Pirates_expt3,2020.1.2,Win32,60,NaN,NaN,NaN,NaN,NaN,NaN,NaN,,NaN,NaN,NaN,NaN,NaN,NaN,,NaN,NaN,NaN,NaN,NaN,NaN,"",,NaN,4,0,4,0,1,3,200,0,200,0,1,199,,NaN,200,0,200,0,1,199,,NaN,,NaN,,NaN
NaN,NaN,NaN,NaN,NaN,"",NaN,NaN,"",NaN,NaN,1,1,49,2,51,84,78,0.05,0.15,0.1,0.15,51,78,84,0.05,0.1,0.15,0,4,0,0,84,84,1635,33,0,0,0,49,1635,33,167,0,,NaN,NaN,NaN,NaN,NaN,NaN,37,1,2020-11-11_16h15.44.514,Pirates_expt3,2020.1.2,Win32,60,NaN,NaN,NaN,NaN,NaN,NaN,NaN,,NaN,NaN,NaN,NaN,NaN,NaN,,NaN,NaN,NaN,NaN,NaN,NaN,"",,NaN,4,0,4,0,1,3,200,0,200,0,1,199,,NaN,200,0,200,0,1,199,space,0.282545,,NaN,,NaN
NaN,NaN,NaN,NaN,NaN,"",NaN,NaN,"",NaN,NaN,NaN,NaN,NaN,NaN,NaN,NaN,NaN,NaN,NaN,NaN,NaN,NaN,NaN,NaN,NaN,NaN,NaN,NaN,NaN,,NaN,NaN,NaN,NaN,NaN,,NaN,NaN,NaN,NaN,NaN,NaN,NaN,,NaN,NaN,NaN,NaN,NaN,NaN,37,1,2020-11-11_16h15.44.514,Pirates_expt3,2020.1.2,Win32,60,NaN,NaN,NaN,NaN,NaN,NaN,NaN,,NaN,NaN,NaN,NaN,NaN,NaN,,NaN,NaN,NaN,NaN,NaN,NaN,"",,NaN,NaN,NaN,NaN,NaN,NaN,NaN,NaN,NaN,NaN,NaN,NaN,NaN,,NaN,2,0,2,0,1,NaN,,NaN,,NaN,,NaN
NaN,NaN,NaN,NaN,NaN,"",NaN,NaN,"",NaN,NaN,1,1,49,2,51,72,78,0.05,0.15,0.1,0.15,51,78,72,0.05,0.1,0.15,2,3,0,0,72,72,1635,33,space,0.659845,0,49,1635,33,167,0,,NaN,NaN,NaN,NaN,NaN,NaN,37,1,2020-11-11_16h15.44.514,Pirates_expt3,2020.1.2,Win32,60,NaN,NaN,NaN,NaN,NaN,NaN,NaN,,NaN,NaN,NaN,NaN,NaN,NaN,,NaN,NaN,NaN,NaN,NaN,NaN,"",,NaN,4,0,4,0,1,3,200,0,200,0,1,199,,NaN,200,0,200,0,1,199,,NaN,,NaN,,NaN
NaN,NaN,NaN,NaN,NaN,"",NaN,NaN,"",NaN,NaN,1,1,50,2,54,72,80,0.05,0.15,0.1,0.15,54,80,72,0.05,0.1,0.15,0,4,0,0,72,72,1707,34,0,0,0,50,1707,34,166,0,,NaN,NaN,NaN,NaN,NaN,NaN,37,1,2020-11-11_16h15.44.514,Pirates_expt3,2020.1.2,Win32,60,NaN,NaN,NaN,NaN,NaN,NaN,NaN,,NaN,NaN,NaN,NaN,NaN,NaN,,NaN,NaN,NaN,NaN,NaN,NaN,"",,NaN,4,0,4,0,1,3,200,0,200,0,1,199,,NaN,200,0,200,0,1,199,space,0.659845,,NaN,,NaN
NaN,NaN,NaN,NaN,NaN,"",NaN,NaN,"",NaN,NaN,NaN,NaN,NaN,NaN,NaN,NaN,NaN,NaN,NaN,NaN,NaN,NaN,NaN,NaN,NaN,NaN,NaN,NaN,NaN,,NaN,NaN,NaN,NaN,NaN,,NaN,NaN,NaN,NaN,NaN,NaN,NaN,,NaN,NaN,NaN,NaN,NaN,NaN,37,1,2020-11-11_16h15.44.514,Pirates_expt3,2020.1.2,Win32,60,NaN,NaN,NaN,NaN,NaN,NaN,NaN,,NaN,NaN,NaN,NaN,NaN,NaN,,NaN,NaN,NaN,NaN,NaN,NaN,"",,NaN,NaN,NaN,NaN,NaN,NaN,NaN,NaN,NaN,NaN,NaN,NaN,NaN,,NaN,3,0,3,0,1,NaN,,NaN,,NaN,,NaN
NaN,NaN,NaN,NaN,NaN,"",NaN,NaN,"",NaN,NaN,1,1,50,2,54,58,80,0.05,0.15,0.1,0.15,54,80,58,0.05,0.1,0.15,2,3,0,0,58,58,1707,34,space,0.1465,0,50,1707,34,166,0,,NaN,NaN,NaN,NaN,NaN,NaN,37,1,2020-11-11_16h15.44.514,Pirates_expt3,2020.1.2,Win32,60,NaN,NaN,NaN,NaN,NaN,NaN,NaN,,NaN,NaN,NaN,NaN,NaN,NaN,,NaN,NaN,NaN,NaN,NaN,NaN,"",,NaN,4,0,4,0,1,3,200,0,200,0,1,199,,NaN,200,0,200,0,1,199,,NaN,,NaN,,NaN
NaN,NaN,NaN,NaN,NaN,"",NaN,NaN,"",NaN,NaN,1,1,50,2,56,58,82,0.05,0.15,0.1,0.15,56,82,58,0.05,0.1,0.15,0,4,0,0,58,58,1766,35,0,0,0,50,1766,35,165,0,,NaN,NaN,NaN,NaN,NaN,NaN,37,1,2020-11-11_16h15.44.514,Pirates_expt3,2020.1.2,Win32,60,NaN,NaN,NaN,NaN,NaN,NaN,NaN,,NaN,NaN,NaN,NaN,NaN,NaN,,NaN,NaN,NaN,NaN,NaN,NaN,"",,NaN,4,0,4,0,1,3,200,0,200,0,1,199,,NaN,200,0,200,0,1,199,space,0.1465,,NaN,,NaN
NaN,NaN,NaN,NaN,NaN,"",NaN,NaN,"",NaN,NaN,NaN,NaN,NaN,NaN,NaN,NaN,NaN,NaN,NaN,NaN,NaN,NaN,NaN,NaN,NaN,NaN,NaN,NaN,NaN,,NaN,NaN,NaN,NaN,NaN,,NaN,NaN,NaN,NaN,NaN,NaN,NaN,,NaN,NaN,NaN,NaN,NaN,NaN,37,1,2020-11-11_16h15.44.514,Pirates_expt3,2020.1.2,Win32,60,NaN,NaN,NaN,NaN,NaN,NaN,NaN,,NaN,NaN,NaN,NaN,NaN,NaN,,NaN,NaN,NaN,NaN,NaN,NaN,"",,NaN,NaN,NaN,NaN,NaN,NaN,NaN,NaN,NaN,NaN,NaN,NaN,NaN,,NaN,4,0,4,0,1,NaN,,NaN,,NaN,,NaN
NaN,NaN,NaN,NaN,NaN,"",NaN,NaN,"",NaN,NaN,1,1,50,2,56,45,82,0.05,0.15,0.1,0.15,56,82,45,0.05,0.1,0.15,2,3,0,0,45,45,1766,35,space,0.366295,0,50,1766,35,165,0,,NaN,NaN,NaN,NaN,NaN,NaN,37,1,2020-11-11_16h15.44.514,Pirates_expt3,2020.1.2,Win32,60,NaN,NaN,NaN,NaN,NaN,NaN,NaN,,NaN,NaN,NaN,NaN,NaN,NaN,,NaN,NaN,NaN,NaN,NaN,NaN,"",,NaN,4,0,4,0,1,3,200,0,200,0,1,199,,NaN,200,0,200,0,1,199,,NaN,,NaN,,NaN
NaN,NaN,NaN,NaN,NaN,"",NaN,NaN,"",NaN,NaN,1,1,50,2,58,45,84,0.05,0.15,0.1,0.15,58,84,45,0.05,0.1,0.15,0,4,0,0,45,45,1811,36,0,0,0,50,1811,36,164,0,,NaN,NaN,NaN,NaN,NaN,NaN,37,1,2020-11-11_16h15.44.514,Pirates_expt3,2020.1.2,Win32,60,NaN,NaN,NaN,NaN,NaN,NaN,NaN,,NaN,NaN,NaN,NaN,NaN,NaN,,NaN,NaN,NaN,NaN,NaN,NaN,"",,NaN,4,0,4,0,1,3,200,0,200,0,1,199,,NaN,200,0,200,0,1,199,space,0.366295,,NaN,,NaN
NaN,NaN,NaN,NaN,NaN,"",NaN,NaN,"",NaN,NaN,NaN,NaN,NaN,NaN,NaN,NaN,NaN,NaN,NaN,NaN,NaN,NaN,NaN,NaN,NaN,NaN,NaN,NaN,NaN,,NaN,NaN,NaN,NaN,NaN,,NaN,NaN,NaN,NaN,NaN,NaN,NaN,,NaN,NaN,NaN,NaN,NaN,NaN,37,1,2020-11-11_16h15.44.514,Pirates_expt3,2020.1.2,Win32,60,NaN,NaN,NaN,NaN,NaN,NaN,NaN,,NaN,NaN,NaN,NaN,NaN,NaN,,NaN,NaN,NaN,NaN,NaN,NaN,"",,NaN,NaN,NaN,NaN,NaN,NaN,NaN,NaN,NaN,NaN,NaN,NaN,NaN,,NaN,5,0,5,0,1,NaN,,NaN,,NaN,,NaN
NaN,NaN,NaN,NaN,NaN,"",NaN,NaN,"",NaN,NaN,1,1,50,2,58,33,84,0.05,0.15,0.1,0.15,58,84,33,0.05,0.1,0.15,3,3,0,0,33,33,1811,36,s,0.2844,6,50,1811,36,164,0,,NaN,NaN,NaN,NaN,NaN,NaN,37,1,2020-11-11_16h15.44.514,Pirates_expt3,2020.1.2,Win32,60,NaN,NaN,NaN,NaN,NaN,NaN,NaN,,NaN,NaN,NaN,NaN,NaN,NaN,,NaN,NaN,NaN,NaN,NaN,NaN,"",,NaN,4,0,4,0,1,3,200,0,200,0,1,199,,NaN,200,0,200,0,1,199,,NaN,,NaN,,NaN
NaN,NaN,NaN,NaN,NaN,"",NaN,NaN,"",NaN,NaN,1,1,48,2,60,43,86,0.05,0.15,0.1,0.15,60,86,43,0.05,0.1,0.15,0,4,0,0,43,33,1811,37,0,0,0,48,1811,37,163,11.515,,NaN,NaN,NaN,NaN,NaN,NaN,37,1,2020-11-11_16h15.44.514,Pirates_expt3,2020.1.2,Win32,60,NaN,NaN,NaN,NaN,NaN,NaN,NaN,,NaN,NaN,NaN,NaN,NaN,NaN,,NaN,NaN,NaN,NaN,NaN,NaN,"",,NaN,4,0,4,0,1,3,200,0,200,0,1,199,,NaN,200,0,200,0,1,199,s,0.2844,,NaN,,NaN
NaN,NaN,NaN,NaN,NaN,"",NaN,NaN,"",NaN,NaN,NaN,NaN,NaN,NaN,NaN,NaN,NaN,NaN,NaN,NaN,NaN,NaN,NaN,NaN,NaN,NaN,NaN,NaN,NaN,,NaN,NaN,NaN,NaN,NaN,,NaN,NaN,NaN,NaN,NaN,NaN,NaN,,NaN,NaN,NaN,NaN,NaN,NaN,37,1,2020-11-11_16h15.44.514,Pirates_expt3,2020.1.2,Win32,60,NaN,NaN,NaN,NaN,NaN,NaN,NaN,,NaN,NaN,NaN,NaN,NaN,NaN,,NaN,NaN,NaN,NaN,NaN,NaN,"",,NaN,NaN,NaN,NaN,NaN,NaN,NaN,4,0,4,0,1,NaN,,NaN,NaN,NaN,NaN,NaN,NaN,NaN,,NaN,,NaN,,NaN
NaN,NaN,NaN,NaN,NaN,"",NaN,NaN,"",NaN,NaN,1,1,48,1,60,43,86,0.05,0.15,0.1,0.05,60,86,43,0.05,0.1,0.15,1,1,f,1.141495,0,0,1811,38,N/A,0,0,48,1811,38,162,0,,NaN,NaN,NaN,NaN,NaN,NaN,37,1,2020-11-11_16h15.44.514,Pirates_expt3,2020.1.2,Win32,60,NaN,NaN,NaN,NaN,NaN,NaN,NaN,,NaN,NaN,NaN,NaN,NaN,NaN,,NaN,NaN,NaN,NaN,NaN,NaN,"",,NaN,4,0,4,0,1,3,200,0,200,0,1,199,,NaN,NaN,NaN,NaN,NaN,NaN,NaN,,NaN,,NaN,,NaN
NaN,NaN,NaN,NaN,NaN,"",NaN,NaN,"",NaN,NaN,1,1,48,1,62,51,87,0.05,0.15,0.1,0.05,62,87,51,0.05,0.1,0.15,0,2,0,0,0,0,1811,38,N/A,0,0,48,1811,38,162,0,,NaN,NaN,NaN,NaN,NaN,NaN,37,1,2020-11-11_16h15.44.514,Pirates_expt3,2020.1.2,Win32,60,NaN,NaN,NaN,NaN,NaN,NaN,NaN,,NaN,NaN,NaN,NaN,NaN,NaN,,NaN,NaN,NaN,NaN,NaN,NaN,"",,NaN,4,0,4,0,1,3,200,0,200,0,1,199,f,1.141495,NaN,NaN,NaN,NaN,NaN,NaN,,NaN,,NaN,,NaN
NaN,NaN,NaN,NaN,NaN,"",NaN,NaN,"",NaN,NaN,1,1,47,1,62,51,87,0.05,0.15,0.1,0.05,62,87,51,0.05,0.1,0.15,2,3,0,0,62,62,1811,38,space,0.661225,0,47,1811,38,162,0,,NaN,NaN,NaN,NaN,NaN,NaN,37,1,2020-11-11_16h15.44.514,Pirates_expt3,2020.1.2,Win32,60,NaN,NaN,NaN,NaN,NaN,NaN,NaN,,NaN,NaN,NaN,NaN,NaN,NaN,,NaN,NaN,NaN,NaN,NaN,NaN,"",,NaN,4,0,4,0,1,3,200,0,200,0,1,199,,NaN,200,0,200,0,1,199,,NaN,,NaN,,NaN
NaN,NaN,NaN,NaN,NaN,"",NaN,NaN,"",NaN,NaN,1,1,48,1,62,59,88,0.05,0.15,0.1,0.05,62,88,59,0.05,0.1,0.15,0,4,0,0,62,62,1874,39,0,0,0,48,1874,39,161,0,,NaN,NaN,NaN,NaN,NaN,NaN,37,1,2020-11-11_16h15.44.514,Pirates_expt3,2020.1.2,Win32,60,NaN,NaN,NaN,NaN,NaN,NaN,NaN,,NaN,NaN,NaN,NaN,NaN,NaN,,NaN,NaN,NaN,NaN,NaN,NaN,"",,NaN,4,0,4,0,1,3,200,0,200,0,1,199,,NaN,200,0,200,0,1,199,space,0.661225,,NaN,,NaN
NaN,NaN,NaN,NaN,NaN,"",NaN,NaN,"",NaN,NaN,NaN,NaN,NaN,NaN,NaN,NaN,NaN,NaN,NaN,NaN,NaN,NaN,NaN,NaN,NaN,NaN,NaN,NaN,NaN,,NaN,NaN,NaN,NaN,NaN,,NaN,NaN,NaN,NaN,NaN,NaN,NaN,,NaN,NaN,NaN,NaN,NaN,NaN,37,1,2020-11-11_16h15.44.514,Pirates_expt3,2020.1.2,Win32,60,NaN,NaN,NaN,NaN,NaN,NaN,NaN,,NaN,NaN,NaN,NaN,NaN,NaN,,NaN,NaN,NaN,NaN,NaN,NaN,"",,NaN,NaN,NaN,NaN,NaN,NaN,NaN,NaN,NaN,NaN,NaN,NaN,NaN,,NaN,0,0,0,0,1,NaN,,NaN,,NaN,,NaN
NaN,NaN,NaN,NaN,NaN,"",NaN,NaN,"",NaN,NaN,1,1,48,1,59,59,88,0.05,0.15,0.1,0.05,59,88,59,0.05,0.1,0.15,2,3,0,0,59,59,1874,39,space,0.381375,0,48,1874,39,161,0,,NaN,NaN,NaN,NaN,NaN,NaN,37,1,2020-11-11_16h15.44.514,Pirates_expt3,2020.1.2,Win32,60,NaN,NaN,NaN,NaN,NaN,NaN,NaN,,NaN,NaN,NaN,NaN,NaN,NaN,,NaN,NaN,NaN,NaN,NaN,NaN,"",,NaN,4,0,4,0,1,3,200,0,200,0,1,199,,NaN,200,0,200,0,1,199,,NaN,,NaN,,NaN
NaN,NaN,NaN,NaN,NaN,"",NaN,NaN,"",NaN,NaN,1,1,48,1,59,65,89,0.05,0.15,0.1,0.05,59,89,65,0.05,0.1,0.15,0,4,0,0,59,59,1934,40,0,0,0,48,1934,40,160,0,,NaN,NaN,NaN,NaN,NaN,NaN,37,1,2020-11-11_16h15.44.514,Pirates_expt3,2020.1.2,Win32,60,NaN,NaN,NaN,NaN,NaN,NaN,NaN,,NaN,NaN,NaN,NaN,NaN,NaN,,NaN,NaN,NaN,NaN,NaN,NaN,"",,NaN,4,0,4,0,1,3,200,0,200,0,1,199,,NaN,200,0,200,0,1,199,space,0.381375,,NaN,,NaN
NaN,NaN,NaN,NaN,NaN,"",NaN,NaN,"",NaN,NaN,NaN,NaN,NaN,NaN,NaN,NaN,NaN,NaN,NaN,NaN,NaN,NaN,NaN,NaN,NaN,NaN,NaN,NaN,NaN,,NaN,NaN,NaN,NaN,NaN,,NaN,NaN,NaN,NaN,NaN,NaN,NaN,,NaN,NaN,NaN,NaN,NaN,NaN,37,1,2020-11-11_16h15.44.514,Pirates_expt3,2020.1.2,Win32,60,NaN,NaN,NaN,NaN,NaN,NaN,NaN,,NaN,NaN,NaN,NaN,NaN,NaN,,NaN,NaN,NaN,NaN,NaN,NaN,"",,NaN,NaN,NaN,NaN,NaN,NaN,NaN,NaN,NaN,NaN,NaN,NaN,NaN,,NaN,1,0,1,0,1,NaN,,NaN,,NaN,,NaN
NaN,NaN,NaN,NaN,NaN,"",NaN,NaN,"",NaN,NaN,1,1,48,1,53,65,89,0.05,0.15,0.1,0.05,53,89,65,0.05,0.1,0.15,2,3,0,0,53,53,1934,40,space,0.33124,0,48,1934,40,160,0,,NaN,NaN,NaN,NaN,NaN,NaN,37,1,2020-11-11_16h15.44.514,Pirates_expt3,2020.1.2,Win32,60,NaN,NaN,NaN,NaN,NaN,NaN,NaN,,NaN,NaN,NaN,NaN,NaN,NaN,,NaN,NaN,NaN,NaN,NaN,NaN,"",,NaN,4,0,4,0,1,3,200,0,200,0,1,199,,NaN,200,0,200,0,1,199,,NaN,,NaN,,NaN
NaN,NaN,NaN,NaN,NaN,"",NaN,NaN,"",NaN,NaN,1,1,48,1,53,70,90,0.05,0.15,0.1,0.05,53,90,70,0.05,0.1,0.15,0,4,0,0,53,53,1988,41,0,0,0,48,1988,41,159,0,,NaN,NaN,NaN,NaN,NaN,NaN,37,1,2020-11-11_16h15.44.514,Pirates_expt3,2020.1.2,Win32,60,NaN,NaN,NaN,NaN,NaN,NaN,NaN,,NaN,NaN,NaN,NaN,NaN,NaN,,NaN,NaN,NaN,NaN,NaN,NaN,"",,NaN,4,0,4,0,1,3,200,0,200,0,1,199,,NaN,200,0,200,0,1,199,space,0.33124,,NaN,,NaN
NaN,NaN,NaN,NaN,NaN,"",NaN,NaN,"",NaN,NaN,NaN,NaN,NaN,NaN,NaN,NaN,NaN,NaN,NaN,NaN,NaN,NaN,NaN,NaN,NaN,NaN,NaN,NaN,NaN,,NaN,NaN,NaN,NaN,NaN,,NaN,NaN,NaN,NaN,NaN,NaN,NaN,,NaN,NaN,NaN,NaN,NaN,NaN,37,1,2020-11-11_16h15.44.514,Pirates_expt3,2020.1.2,Win32,60,NaN,NaN,NaN,NaN,NaN,NaN,NaN,,NaN,NaN,NaN,NaN,NaN,NaN,,NaN,NaN,NaN,NaN,NaN,NaN,"",,NaN,NaN,NaN,NaN,NaN,NaN,NaN,NaN,NaN,NaN,NaN,NaN,NaN,,NaN,2,0,2,0,1,NaN,,NaN,,NaN,,NaN
NaN,NaN,NaN,NaN,NaN,"",NaN,NaN,"",NaN,NaN,1,1,48,1,46,70,90,0.05,0.15,0.1,0.05,46,90,70,0.05,0.1,0.15,2,3,0,0,46,46,1988,41,space,0.00216,0,48,1988,41,159,0,,NaN,NaN,NaN,NaN,NaN,NaN,37,1,2020-11-11_16h15.44.514,Pirates_expt3,2020.1.2,Win32,60,NaN,NaN,NaN,NaN,NaN,NaN,NaN,,NaN,NaN,NaN,NaN,NaN,NaN,,NaN,NaN,NaN,NaN,NaN,NaN,"",,NaN,4,0,4,0,1,3,200,0,200,0,1,199,,NaN,200,0,200,0,1,199,,NaN,,NaN,,NaN
NaN,NaN,NaN,NaN,NaN,"",NaN,NaN,"",NaN,NaN,1,1,48,1,46,74,91,0.05,0.15,0.1,0.05,46,91,74,0.05,0.1,0.15,0,4,0,0,46,46,2034,42,0,0,0,48,2034,42,158,0,,NaN,NaN,NaN,NaN,NaN,NaN,37,1,2020-11-11_16h15.44.514,Pirates_expt3,2020.1.2,Win32,60,NaN,NaN,NaN,NaN,NaN,NaN,NaN,,NaN,NaN,NaN,NaN,NaN,NaN,,NaN,NaN,NaN,NaN,NaN,NaN,"",,NaN,4,0,4,0,1,3,200,0,200,0,1,199,,NaN,200,0,200,0,1,199,space,0.00216,,NaN,,NaN
NaN,NaN,NaN,NaN,NaN,"",NaN,NaN,"",NaN,NaN,NaN,NaN,NaN,NaN,NaN,NaN,NaN,NaN,NaN,NaN,NaN,NaN,NaN,NaN,NaN,NaN,NaN,NaN,NaN,,NaN,NaN,NaN,NaN,NaN,,NaN,NaN,NaN,NaN,NaN,NaN,NaN,,NaN,NaN,NaN,NaN,NaN,NaN,37,1,2020-11-11_16h15.44.514,Pirates_expt3,2020.1.2,Win32,60,NaN,NaN,NaN,NaN,NaN,NaN,NaN,,NaN,NaN,NaN,NaN,NaN,NaN,,NaN,NaN,NaN,NaN,NaN,NaN,"",,NaN,NaN,NaN,NaN,NaN,NaN,NaN,NaN,NaN,NaN,NaN,NaN,NaN,,NaN,3,0,3,0,1,NaN,,NaN,,NaN,,NaN
NaN,NaN,NaN,NaN,NaN,"",NaN,NaN,"",NaN,NaN,1,1,48,1,37,74,91,0.05,0.15,0.1,0.05,37,91,74,0.05,0.1,0.15,3,3,0,0,37,37,2034,42,s,0.34706,4,48,2034,42,158,0,,NaN,NaN,NaN,NaN,NaN,NaN,37,1,2020-11-11_16h15.44.514,Pirates_expt3,2020.1.2,Win32,60,NaN,NaN,NaN,NaN,NaN,NaN,NaN,,NaN,NaN,NaN,NaN,NaN,NaN,,NaN,NaN,NaN,NaN,NaN,NaN,"",,NaN,4,0,4,0,1,3,200,0,200,0,1,199,,NaN,200,0,200,0,1,199,,NaN,,NaN,,NaN
NaN,NaN,NaN,NaN,NaN,"",NaN,NaN,"",NaN,NaN,1,1,47,1,40,78,92,0.05,0.15,0.1,0.05,40,92,78,0.05,0.1,0.15,0,4,0,0,40,37,2034,43,0,0,0,47,2034,43,157,7.764,,NaN,NaN,NaN,NaN,NaN,NaN,37,1,2020-11-11_16h15.44.514,Pirates_expt3,2020.1.2,Win32,60,NaN,NaN,NaN,NaN,NaN,NaN,NaN,,NaN,NaN,NaN,NaN,NaN,NaN,,NaN,NaN,NaN,NaN,NaN,NaN,"",,NaN,4,0,4,0,1,3,200,0,200,0,1,199,,NaN,200,0,200,0,1,199,s,0.34706,,NaN,,NaN
NaN,NaN,NaN,NaN,NaN,"",NaN,NaN,"",NaN,NaN,NaN,NaN,NaN,NaN,NaN,NaN,NaN,NaN,NaN,NaN,NaN,NaN,NaN,NaN,NaN,NaN,NaN,NaN,NaN,,NaN,NaN,NaN,NaN,NaN,,NaN,NaN,NaN,NaN,NaN,NaN,NaN,,NaN,NaN,NaN,NaN,NaN,NaN,37,1,2020-11-11_16h15.44.514,Pirates_expt3,2020.1.2,Win32,60,NaN,NaN,NaN,NaN,NaN,NaN,NaN,,NaN,NaN,NaN,NaN,NaN,NaN,,NaN,NaN,NaN,NaN,NaN,NaN,"",,NaN,NaN,NaN,NaN,NaN,NaN,NaN,5,0,5,0,1,NaN,,NaN,NaN,NaN,NaN,NaN,NaN,NaN,,NaN,,NaN,,NaN
NaN,NaN,NaN,NaN,NaN,"",NaN,NaN,"",NaN,NaN,1,1,47,2,40,78,92,0.05,0.15,0.1,0.15,40,92,78,0.05,0.1,0.15,1,1,j,0.72934,0,0,2034,44,N/A,0,0,47,2034,44,156,0,,NaN,NaN,NaN,NaN,NaN,NaN,37,1,2020-11-11_16h15.44.514,Pirates_expt3,2020.1.2,Win32,60,NaN,NaN,NaN,NaN,NaN,NaN,NaN,,NaN,NaN,NaN,NaN,NaN,NaN,,NaN,NaN,NaN,NaN,NaN,NaN,"",,NaN,4,0,4,0,1,3,200,0,200,0,1,199,,NaN,NaN,NaN,NaN,NaN,NaN,NaN,,NaN,,NaN,,NaN
NaN,NaN,NaN,NaN,NaN,"",NaN,NaN,"",NaN,NaN,1,1,47,2,43,81,93,0.05,0.15,0.1,0.15,43,93,81,0.05,0.1,0.15,0,2,0,0,0,0,2034,44,N/A,0,0,47,2034,44,156,0,,NaN,NaN,NaN,NaN,NaN,NaN,37,1,2020-11-11_16h15.44.514,Pirates_expt3,2020.1.2,Win32,60,NaN,NaN,NaN,NaN,NaN,NaN,NaN,,NaN,NaN,NaN,NaN,NaN,NaN,,NaN,NaN,NaN,NaN,NaN,NaN,"",,NaN,4,0,4,0,1,3,200,0,200,0,1,199,j,0.72934,NaN,NaN,NaN,NaN,NaN,NaN,,NaN,,NaN,,NaN
NaN,NaN,NaN,NaN,NaN,"",NaN,NaN,"",NaN,NaN,1,1,46,2,43,81,93,0.05,0.15,0.1,0.15,43,93,81,0.05,0.1,0.15,2,3,0,0,81,81,2034,44,space,0.35273,0,46,2034,44,156,0,,NaN,NaN,NaN,NaN,NaN,NaN,37,1,2020-11-11_16h15.44.514,Pirates_expt3,2020.1.2,Win32,60,NaN,NaN,NaN,NaN,NaN,NaN,NaN,,NaN,NaN,NaN,NaN,NaN,NaN,,NaN,NaN,NaN,NaN,NaN,NaN,"",,NaN,4,0,4,0,1,3,200,0,200,0,1,199,,NaN,200,0,200,0,1,199,,NaN,,NaN,,NaN
NaN,NaN,NaN,NaN,NaN,"",NaN,NaN,"",NaN,NaN,1,1,47,2,46,81,94,0.05,0.15,0.1,0.15,46,94,81,0.05,0.1,0.15,0,4,0,0,81,81,2116,45,0,0,0,47,2116,45,155,0,,NaN,NaN,NaN,NaN,NaN,NaN,37,1,2020-11-11_16h15.44.514,Pirates_expt3,2020.1.2,Win32,60,NaN,NaN,NaN,NaN,NaN,NaN,NaN,,NaN,NaN,NaN,NaN,NaN,NaN,,NaN,NaN,NaN,NaN,NaN,NaN,"",,NaN,4,0,4,0,1,3,200,0,200,0,1,199,,NaN,200,0,200,0,1,199,space,0.35273,,NaN,,NaN
NaN,NaN,NaN,NaN,NaN,"",NaN,NaN,"",NaN,NaN,NaN,NaN,NaN,NaN,NaN,NaN,NaN,NaN,NaN,NaN,NaN,NaN,NaN,NaN,NaN,NaN,NaN,NaN,NaN,,NaN,NaN,NaN,NaN,NaN,,NaN,NaN,NaN,NaN,NaN,NaN,NaN,,NaN,NaN,NaN,NaN,NaN,NaN,37,1,2020-11-11_16h15.44.514,Pirates_expt3,2020.1.2,Win32,60,NaN,NaN,NaN,NaN,NaN,NaN,NaN,,NaN,NaN,NaN,NaN,NaN,NaN,,NaN,NaN,NaN,NaN,NaN,NaN,"",,NaN,NaN,NaN,NaN,NaN,NaN,NaN,NaN,NaN,NaN,NaN,NaN,NaN,,NaN,0,0,0,0,1,NaN,,NaN,,NaN,,NaN
NaN,NaN,NaN,NaN,NaN,"",NaN,NaN,"",NaN,NaN,1,1,47,2,46,77,94,0.05,0.15,0.1,0.15,46,94,77,0.05,0.1,0.15,2,3,0,0,77,77,2116,45,space,0.116565,0,47,2116,45,155,0,,NaN,NaN,NaN,NaN,NaN,NaN,37,1,2020-11-11_16h15.44.514,Pirates_expt3,2020.1.2,Win32,60,NaN,NaN,NaN,NaN,NaN,NaN,NaN,,NaN,NaN,NaN,NaN,NaN,NaN,,NaN,NaN,NaN,NaN,NaN,NaN,"",,NaN,4,0,4,0,1,3,200,0,200,0,1,199,,NaN,200,0,200,0,1,199,,NaN,,NaN,,NaN
NaN,NaN,NaN,NaN,NaN,"",NaN,NaN,"",NaN,NaN,1,1,47,2,49,77,94,0.05,0.15,0.1,0.15,49,94,77,0.05,0.1,0.15,0,4,0,0,77,77,2193,46,0,0,0,47,2193,46,154,0,,NaN,NaN,NaN,NaN,NaN,NaN,37,1,2020-11-11_16h15.44.514,Pirates_expt3,2020.1.2,Win32,60,NaN,NaN,NaN,NaN,NaN,NaN,NaN,,NaN,NaN,NaN,NaN,NaN,NaN,,NaN,NaN,NaN,NaN,NaN,NaN,"",,NaN,4,0,4,0,1,3,200,0,200,0,1,199,,NaN,200,0,200,0,1,199,space,0.116565,,NaN,,NaN
NaN,NaN,NaN,NaN,NaN,"",NaN,NaN,"",NaN,NaN,NaN,NaN,NaN,NaN,NaN,NaN,NaN,NaN,NaN,NaN,NaN,NaN,NaN,NaN,NaN,NaN,NaN,NaN,NaN,,NaN,NaN,NaN,NaN,NaN,,NaN,NaN,NaN,NaN,NaN,NaN,NaN,,NaN,NaN,NaN,NaN,NaN,NaN,37,1,2020-11-11_16h15.44.514,Pirates_expt3,2020.1.2,Win32,60,NaN,NaN,NaN,NaN,NaN,NaN,NaN,,NaN,NaN,NaN,NaN,NaN,NaN,,NaN,NaN,NaN,NaN,NaN,NaN,"",,NaN,NaN,NaN,NaN,NaN,NaN,NaN,NaN,NaN,NaN,NaN,NaN,NaN,,NaN,1,0,1,0,1,NaN,,NaN,,NaN,,NaN
NaN,NaN,NaN,NaN,NaN,"",NaN,NaN,"",NaN,NaN,1,1,47,2,49,70,94,0.05,0.15,0.1,0.15,49,94,70,0.05,0.1,0.15,2,3,0,0,70,70,2193,46,space,0.070545,0,47,2193,46,154,0,,NaN,NaN,NaN,NaN,NaN,NaN,37,1,2020-11-11_16h15.44.514,Pirates_expt3,2020.1.2,Win32,60,NaN,NaN,NaN,NaN,NaN,NaN,NaN,,NaN,NaN,NaN,NaN,NaN,NaN,,NaN,NaN,NaN,NaN,NaN,NaN,"",,NaN,4,0,4,0,1,3,200,0,200,0,1,199,,NaN,200,0,200,0,1,199,,NaN,,NaN,,NaN
NaN,NaN,NaN,NaN,NaN,"",NaN,NaN,"",NaN,NaN,1,1,48,2,51,70,95,0.05,0.15,0.1,0.15,51,95,70,0.05,0.1,0.15,0,4,0,0,70,70,2264,47,0,0,0,48,2264,47,153,0,,NaN,NaN,NaN,NaN,NaN,NaN,37,1,2020-11-11_16h15.44.514,Pirates_expt3,2020.1.2,Win32,60,NaN,NaN,NaN,NaN,NaN,NaN,NaN,,NaN,NaN,NaN,NaN,NaN,NaN,,NaN,NaN,NaN,NaN,NaN,NaN,"",,NaN,4,0,4,0,1,3,200,0,200,0,1,199,,NaN,200,0,200,0,1,199,space,0.070545,,NaN,,NaN
NaN,NaN,NaN,NaN,NaN,"",NaN,NaN,"",NaN,NaN,NaN,NaN,NaN,NaN,NaN,NaN,NaN,NaN,NaN,NaN,NaN,NaN,NaN,NaN,NaN,NaN,NaN,NaN,NaN,,NaN,NaN,NaN,NaN,NaN,,NaN,NaN,NaN,NaN,NaN,NaN,NaN,,NaN,NaN,NaN,NaN,NaN,NaN,37,1,2020-11-11_16h15.44.514,Pirates_expt3,2020.1.2,Win32,60,NaN,NaN,NaN,NaN,NaN,NaN,NaN,,NaN,NaN,NaN,NaN,NaN,NaN,,NaN,NaN,NaN,NaN,NaN,NaN,"",,NaN,NaN,NaN,NaN,NaN,NaN,NaN,NaN,NaN,NaN,NaN,NaN,NaN,,NaN,2,0,2,0,1,NaN,,NaN,,NaN,,NaN
NaN,NaN,NaN,NaN,NaN,"",NaN,NaN,"",NaN,NaN,1,1,48,2,51,60,95,0.05,0.15,0.1,0.15,51,95,60,0.05,0.1,0.15,2,3,0,0,60,60,2264,47,space,0.27068,0,48,2264,47,153,0,,NaN,NaN,NaN,NaN,NaN,NaN,37,1,2020-11-11_16h15.44.514,Pirates_expt3,2020.1.2,Win32,60,NaN,NaN,NaN,NaN,NaN,NaN,NaN,,NaN,NaN,NaN,NaN,NaN,NaN,,NaN,NaN,NaN,NaN,NaN,NaN,"",,NaN,4,0,4,0,1,3,200,0,200,0,1,199,,NaN,200,0,200,0,1,199,,NaN,,NaN,,NaN
NaN,NaN,NaN,NaN,NaN,"",NaN,NaN,"",NaN,NaN,1,1,48,2,54,60,95,0.05,0.15,0.1,0.15,54,95,60,0.05,0.1,0.15,0,4,0,0,60,60,2324,48,0,0,0,48,2324,48,152,0,,NaN,NaN,NaN,NaN,NaN,NaN,37,1,2020-11-11_16h15.44.514,Pirates_expt3,2020.1.2,Win32,60,NaN,NaN,NaN,NaN,NaN,NaN,NaN,,NaN,NaN,NaN,NaN,NaN,NaN,,NaN,NaN,NaN,NaN,NaN,NaN,"",,NaN,4,0,4,0,1,3,200,0,200,0,1,199,,NaN,200,0,200,0,1,199,space,0.27068,,NaN,,NaN
NaN,NaN,NaN,NaN,NaN,"",NaN,NaN,"",NaN,NaN,NaN,NaN,NaN,NaN,NaN,NaN,NaN,NaN,NaN,NaN,NaN,NaN,NaN,NaN,NaN,NaN,NaN,NaN,NaN,,NaN,NaN,NaN,NaN,NaN,,NaN,NaN,NaN,NaN,NaN,NaN,NaN,,NaN,NaN,NaN,NaN,NaN,NaN,37,1,2020-11-11_16h15.44.514,Pirates_expt3,2020.1.2,Win32,60,NaN,NaN,NaN,NaN,NaN,NaN,NaN,,NaN,NaN,NaN,NaN,NaN,NaN,,NaN,NaN,NaN,NaN,NaN,NaN,"",,NaN,NaN,NaN,NaN,NaN,NaN,NaN,NaN,NaN,NaN,NaN,NaN,NaN,,NaN,3,0,3,0,1,NaN,,NaN,,NaN,,NaN
NaN,NaN,NaN,NaN,NaN,"",NaN,NaN,"",NaN,NaN,1,1,48,2,54,49,95,0.05,0.15,0.1,0.15,54,95,49,0.05,0.1,0.15,2,3,0,0,49,49,2324,48,space,0.371215,0,48,2324,48,152,0,,NaN,NaN,NaN,NaN,NaN,NaN,37,1,2020-11-11_16h15.44.514,Pirates_expt3,2020.1.2,Win32,60,NaN,NaN,NaN,NaN,NaN,NaN,NaN,,NaN,NaN,NaN,NaN,NaN,NaN,,NaN,NaN,NaN,NaN,NaN,NaN,"",,NaN,4,0,4,0,1,3,200,0,200,0,1,199,,NaN,200,0,200,0,1,199,,NaN,,NaN,,NaN
NaN,NaN,NaN,NaN,NaN,"",NaN,NaN,"",NaN,NaN,1,1,48,2,56,49,96,0.05,0.15,0.1,0.15,56,96,49,0.05,0.1,0.15,0,4,0,0,49,49,2373,49,0,0,0,48,2373,49,151,0,,NaN,NaN,NaN,NaN,NaN,NaN,37,1,2020-11-11_16h15.44.514,Pirates_expt3,2020.1.2,Win32,60,NaN,NaN,NaN,NaN,NaN,NaN,NaN,,NaN,NaN,NaN,NaN,NaN,NaN,,NaN,NaN,NaN,NaN,NaN,NaN,"",,NaN,4,0,4,0,1,3,200,0,200,0,1,199,,NaN,200,0,200,0,1,199,space,0.371215,,NaN,,NaN
NaN,NaN,NaN,NaN,NaN,"",NaN,NaN,"",NaN,NaN,NaN,NaN,NaN,NaN,NaN,NaN,NaN,NaN,NaN,NaN,NaN,NaN,NaN,NaN,NaN,NaN,NaN,NaN,NaN,,NaN,NaN,NaN,NaN,NaN,,NaN,NaN,NaN,NaN,NaN,NaN,NaN,,NaN,NaN,NaN,NaN,NaN,NaN,37,1,2020-11-11_16h15.44.514,Pirates_expt3,2020.1.2,Win32,60,NaN,NaN,NaN,NaN,NaN,NaN,NaN,,NaN,NaN,NaN,NaN,NaN,NaN,,NaN,NaN,NaN,NaN,NaN,NaN,"",,NaN,NaN,NaN,NaN,NaN,NaN,NaN,NaN,NaN,NaN,NaN,NaN,NaN,,NaN,4,0,4,0,1,NaN,,NaN,,NaN,,NaN
NaN,NaN,NaN,NaN,NaN,"",NaN,NaN,"",NaN,NaN,1,1,48,2,56,37,96,0.05,0.15,0.1,0.15,56,96,37,0.05,0.1,0.15,2,3,0,0,37,37,2373,49,space,0.208585,0,48,2373,49,151,0,,NaN,NaN,NaN,NaN,NaN,NaN,37,1,2020-11-11_16h15.44.514,Pirates_expt3,2020.1.2,Win32,60,NaN,NaN,NaN,NaN,NaN,NaN,NaN,,NaN,NaN,NaN,NaN,NaN,NaN,,NaN,NaN,NaN,NaN,NaN,NaN,"",,NaN,4,0,4,0,1,3,200,0,200,0,1,199,,NaN,200,0,200,0,1,199,,NaN,,NaN,,NaN
NaN,NaN,NaN,NaN,NaN,"",NaN,NaN,"",NaN,NaN,1,1,48,2,58,37,96,0.05,0.15,0.1,0.15,58,96,37,0.05,0.1,0.15,0,4,0,0,37,37,2411,50,0,0,0,48,2411,50,150,0,,NaN,NaN,NaN,NaN,NaN,NaN,37,1,2020-11-11_16h15.44.514,Pirates_expt3,2020.1.2,Win32,60,NaN,NaN,NaN,NaN,NaN,NaN,NaN,,NaN,NaN,NaN,NaN,NaN,NaN,,NaN,NaN,NaN,NaN,NaN,NaN,"",,NaN,4,0,4,0,1,3,200,0,200,0,1,199,,NaN,200,0,200,0,1,199,space,0.208585,,NaN,,NaN
NaN,NaN,NaN,NaN,NaN,"",NaN,NaN,"",NaN,NaN,NaN,NaN,NaN,NaN,NaN,NaN,NaN,NaN,NaN,NaN,NaN,NaN,NaN,NaN,NaN,NaN,NaN,NaN,NaN,,NaN,NaN,NaN,NaN,NaN,,NaN,NaN,NaN,NaN,NaN,NaN,NaN,,NaN,NaN,NaN,NaN,NaN,NaN,37,1,2020-11-11_16h15.44.514,Pirates_expt3,2020.1.2,Win32,60,NaN,NaN,NaN,NaN,NaN,NaN,NaN,,NaN,NaN,NaN,NaN,NaN,NaN,,NaN,NaN,NaN,NaN,NaN,NaN,"",,NaN,NaN,NaN,NaN,NaN,NaN,NaN,NaN,NaN,NaN,NaN,NaN,NaN,,NaN,5,0,5,0,1,NaN,,NaN,,NaN,,NaN
NaN,NaN,NaN,NaN,NaN,"",NaN,NaN,"",NaN,NaN,1,1,48,2,58,27,96,0.05,0.15,0.1,0.15,58,96,27,0.05,0.1,0.15,3,3,0,0,27,27,2411,50,s,0.29641,6,48,2411,50,150,0,,NaN,NaN,NaN,NaN,NaN,NaN,37,1,2020-11-11_16h15.44.514,Pirates_expt3,2020.1.2,Win32,60,NaN,NaN,NaN,NaN,NaN,NaN,NaN,,NaN,NaN,NaN,NaN,NaN,NaN,,NaN,NaN,NaN,NaN,NaN,NaN,"",,NaN,4,0,4,0,1,3,200,0,200,0,1,199,,NaN,200,0,200,0,1,199,,NaN,,NaN,,NaN
NaN,NaN,NaN,NaN,NaN,"",NaN,NaN,"",NaN,NaN,1,1,47,2,60,38,96,0.05,0.15,0.1,0.15,60,96,38,0.05,0.1,0.15,0,4,0,0,38,27,2411,51,0,0,0,47,2411,51,149,10.729,,NaN,NaN,NaN,NaN,NaN,NaN,37,1,2020-11-11_16h15.44.514,Pirates_expt3,2020.1.2,Win32,60,NaN,NaN,NaN,NaN,NaN,NaN,NaN,,NaN,NaN,NaN,NaN,NaN,NaN,,NaN,NaN,NaN,NaN,NaN,NaN,"",,NaN,4,0,4,0,1,3,200,0,200,0,1,199,,NaN,200,0,200,0,1,199,s,0.29641,,NaN,,NaN
NaN,NaN,NaN,NaN,NaN,"",NaN,NaN,"",NaN,NaN,NaN,NaN,NaN,NaN,NaN,NaN,NaN,NaN,NaN,NaN,NaN,NaN,NaN,NaN,NaN,NaN,NaN,NaN,NaN,,NaN,NaN,NaN,NaN,NaN,,NaN,NaN,NaN,NaN,NaN,NaN,NaN,,NaN,NaN,NaN,NaN,NaN,NaN,37,1,2020-11-11_16h15.44.514,Pirates_expt3,2020.1.2,Win32,60,NaN,NaN,NaN,NaN,NaN,NaN,NaN,,NaN,NaN,NaN,NaN,NaN,NaN,,NaN,NaN,NaN,NaN,NaN,NaN,"",,NaN,NaN,NaN,NaN,NaN,NaN,NaN,6,0,6,0,1,NaN,,NaN,NaN,NaN,NaN,NaN,NaN,NaN,,NaN,,NaN,,NaN
NaN,NaN,NaN,NaN,NaN,"",NaN,NaN,"",NaN,NaN,1,1,47,1,60,38,96,0.05,0.15,0.1,0.05,60,96,38,0.05,0.1,0.15,1,1,f,2.78591,0,0,2411,52,N/A,0,0,47,2411,52,148,0,,NaN,NaN,NaN,NaN,NaN,NaN,37,1,2020-11-11_16h15.44.514,Pirates_expt3,2020.1.2,Win32,60,NaN,NaN,NaN,NaN,NaN,NaN,NaN,,NaN,NaN,NaN,NaN,NaN,NaN,,NaN,NaN,NaN,NaN,NaN,NaN,"",,NaN,4,0,4,0,1,3,200,0,200,0,1,199,,NaN,NaN,NaN,NaN,NaN,NaN,NaN,,NaN,,NaN,,NaN
NaN,NaN,NaN,NaN,NaN,"",NaN,NaN,"",NaN,NaN,1,1,47,1,62,47,97,0.05,0.15,0.1,0.05,62,97,47,0.05,0.1,0.15,0,2,0,0,0,0,2411,52,N/A,0,0,47,2411,52,148,0,,NaN,NaN,NaN,NaN,NaN,NaN,37,1,2020-11-11_16h15.44.514,Pirates_expt3,2020.1.2,Win32,60,NaN,NaN,NaN,NaN,NaN,NaN,NaN,,NaN,NaN,NaN,NaN,NaN,NaN,,NaN,NaN,NaN,NaN,NaN,NaN,"",,NaN,4,0,4,0,1,3,200,0,200,0,1,199,f,2.78591,NaN,NaN,NaN,NaN,NaN,NaN,,NaN,,NaN,,NaN
NaN,NaN,NaN,NaN,NaN,"",NaN,NaN,"",NaN,NaN,1,1,46,1,62,47,97,0.05,0.15,0.1,0.05,62,97,47,0.05,0.1,0.15,2,3,0,0,62,62,2411,52,space,0.31567,0,46,2411,52,148,0,,NaN,NaN,NaN,NaN,NaN,NaN,37,1,2020-11-11_16h15.44.514,Pirates_expt3,2020.1.2,Win32,60,NaN,NaN,NaN,NaN,NaN,NaN,NaN,,NaN,NaN,NaN,NaN,NaN,NaN,,NaN,NaN,NaN,NaN,NaN,NaN,"",,NaN,4,0,4,0,1,3,200,0,200,0,1,199,,NaN,200,0,200,0,1,199,,NaN,,NaN,,NaN
NaN,NaN,NaN,NaN,NaN,"",NaN,NaN,"",NaN,NaN,1,1,46,1,62,55,97,0.05,0.15,0.1,0.05,62,97,55,0.05,0.1,0.15,0,4,0,0,62,62,2473,53,0,0,0,46,2473,53,147,0,,NaN,NaN,NaN,NaN,NaN,NaN,37,1,2020-11-11_16h15.44.514,Pirates_expt3,2020.1.2,Win32,60,NaN,NaN,NaN,NaN,NaN,NaN,NaN,,NaN,NaN,NaN,NaN,NaN,NaN,,NaN,NaN,NaN,NaN,NaN,NaN,"",,NaN,4,0,4,0,1,3,200,0,200,0,1,199,,NaN,200,0,200,0,1,199,space,0.31567,,NaN,,NaN
NaN,NaN,NaN,NaN,NaN,"",NaN,NaN,"",NaN,NaN,NaN,NaN,NaN,NaN,NaN,NaN,NaN,NaN,NaN,NaN,NaN,NaN,NaN,NaN,NaN,NaN,NaN,NaN,NaN,,NaN,NaN,NaN,NaN,NaN,,NaN,NaN,NaN,NaN,NaN,NaN,NaN,,NaN,NaN,NaN,NaN,NaN,NaN,37,1,2020-11-11_16h15.44.514,Pirates_expt3,2020.1.2,Win32,60,NaN,NaN,NaN,NaN,NaN,NaN,NaN,,NaN,NaN,NaN,NaN,NaN,NaN,,NaN,NaN,NaN,NaN,NaN,NaN,"",,NaN,NaN,NaN,NaN,NaN,NaN,NaN,NaN,NaN,NaN,NaN,NaN,NaN,,NaN,0,0,0,0,1,NaN,,NaN,,NaN,,NaN
NaN,NaN,NaN,NaN,NaN,"",NaN,NaN,"",NaN,NaN,1,1,46,1,59,55,97,0.05,0.15,0.1,0.05,59,97,55,0.05,0.1,0.15,2,3,0,0,59,59,2473,53,space,0.182075,0,46,2473,53,147,0,,NaN,NaN,NaN,NaN,NaN,NaN,37,1,2020-11-11_16h15.44.514,Pirates_expt3,2020.1.2,Win32,60,NaN,NaN,NaN,NaN,NaN,NaN,NaN,,NaN,NaN,NaN,NaN,NaN,NaN,,NaN,NaN,NaN,NaN,NaN,NaN,"",,NaN,4,0,4,0,1,3,200,0,200,0,1,199,,NaN,200,0,200,0,1,199,,NaN,,NaN,,NaN
NaN,NaN,NaN,NaN,NaN,"",NaN,NaN,"",NaN,NaN,1,1,46,1,59,62,97,0.05,0.15,0.1,0.05,59,97,62,0.05,0.1,0.15,0,4,0,0,59,59,2533,54,0,0,0,46,2533,54,146,0,,NaN,NaN,NaN,NaN,NaN,NaN,37,1,2020-11-11_16h15.44.514,Pirates_expt3,2020.1.2,Win32,60,NaN,NaN,NaN,NaN,NaN,NaN,NaN,,NaN,NaN,NaN,NaN,NaN,NaN,,NaN,NaN,NaN,NaN,NaN,NaN,"",,NaN,4,0,4,0,1,3,200,0,200,0,1,199,,NaN,200,0,200,0,1,199,space,0.182075,,NaN,,NaN
NaN,NaN,NaN,NaN,NaN,"",NaN,NaN,"",NaN,NaN,NaN,NaN,NaN,NaN,NaN,NaN,NaN,NaN,NaN,NaN,NaN,NaN,NaN,NaN,NaN,NaN,NaN,NaN,NaN,,NaN,NaN,NaN,NaN,NaN,,NaN,NaN,NaN,NaN,NaN,NaN,NaN,,NaN,NaN,NaN,NaN,NaN,NaN,37,1,2020-11-11_16h15.44.514,Pirates_expt3,2020.1.2,Win32,60,NaN,NaN,NaN,NaN,NaN,NaN,NaN,,NaN,NaN,NaN,NaN,NaN,NaN,,NaN,NaN,NaN,NaN,NaN,NaN,"",,NaN,NaN,NaN,NaN,NaN,NaN,NaN,NaN,NaN,NaN,NaN,NaN,NaN,,NaN,1,0,1,0,1,NaN,,NaN,,NaN,,NaN
NaN,NaN,NaN,NaN,NaN,"",NaN,NaN,"",NaN,NaN,1,1,46,1,53,62,97,0.05,0.15,0.1,0.05,53,97,62,0.05,0.1,0.15,2,3,0,0,53,53,2533,54,space,0.324745,0,46,2533,54,146,0,,NaN,NaN,NaN,NaN,NaN,NaN,37,1,2020-11-11_16h15.44.514,Pirates_expt3,2020.1.2,Win32,60,NaN,NaN,NaN,NaN,NaN,NaN,NaN,,NaN,NaN,NaN,NaN,NaN,NaN,,NaN,NaN,NaN,NaN,NaN,NaN,"",,NaN,4,0,4,0,1,3,200,0,200,0,1,199,,NaN,200,0,200,0,1,199,,NaN,,NaN,,NaN
NaN,NaN,NaN,NaN,NaN,"",NaN,NaN,"",NaN,NaN,1,1,47,1,53,68,97,0.05,0.15,0.1,0.05,53,97,68,0.05,0.1,0.15,0,4,0,0,53,53,2587,55,0,0,0,47,2587,55,145,0,,NaN,NaN,NaN,NaN,NaN,NaN,37,1,2020-11-11_16h15.44.514,Pirates_expt3,2020.1.2,Win32,60,NaN,NaN,NaN,NaN,NaN,NaN,NaN,,NaN,NaN,NaN,NaN,NaN,NaN,,NaN,NaN,NaN,NaN,NaN,NaN,"",,NaN,4,0,4,0,1,3,200,0,200,0,1,199,,NaN,200,0,200,0,1,199,space,0.324745,,NaN,,NaN
NaN,NaN,NaN,NaN,NaN,"",NaN,NaN,"",NaN,NaN,NaN,NaN,NaN,NaN,NaN,NaN,NaN,NaN,NaN,NaN,NaN,NaN,NaN,NaN,NaN,NaN,NaN,NaN,NaN,,NaN,NaN,NaN,NaN,NaN,,NaN,NaN,NaN,NaN,NaN,NaN,NaN,,NaN,NaN,NaN,NaN,NaN,NaN,37,1,2020-11-11_16h15.44.514,Pirates_expt3,2020.1.2,Win32,60,NaN,NaN,NaN,NaN,NaN,NaN,NaN,,NaN,NaN,NaN,NaN,NaN,NaN,,NaN,NaN,NaN,NaN,NaN,NaN,"",,NaN,NaN,NaN,NaN,NaN,NaN,NaN,NaN,NaN,NaN,NaN,NaN,NaN,,NaN,2,0,2,0,1,NaN,,NaN,,NaN,,NaN
NaN,NaN,NaN,NaN,NaN,"",NaN,NaN,"",NaN,NaN,1,1,47,1,46,68,97,0.05,0.15,0.1,0.05,46,97,68,0.05,0.1,0.15,2,3,0,0,46,46,2587,55,space,0.19765,0,47,2587,55,145,0,,NaN,NaN,NaN,NaN,NaN,NaN,37,1,2020-11-11_16h15.44.514,Pirates_expt3,2020.1.2,Win32,60,NaN,NaN,NaN,NaN,NaN,NaN,NaN,,NaN,NaN,NaN,NaN,NaN,NaN,,NaN,NaN,NaN,NaN,NaN,NaN,"",,NaN,4,0,4,0,1,3,200,0,200,0,1,199,,NaN,200,0,200,0,1,199,,NaN,,NaN,,NaN
NaN,NaN,NaN,NaN,NaN,"",NaN,NaN,"",NaN,NaN,1,1,47,1,46,72,98,0.05,0.15,0.1,0.05,46,98,72,0.05,0.1,0.15,0,4,0,0,46,46,2633,56,0,0,0,47,2633,56,144,0,,NaN,NaN,NaN,NaN,NaN,NaN,37,1,2020-11-11_16h15.44.514,Pirates_expt3,2020.1.2,Win32,60,NaN,NaN,NaN,NaN,NaN,NaN,NaN,,NaN,NaN,NaN,NaN,NaN,NaN,,NaN,NaN,NaN,NaN,NaN,NaN,"",,NaN,4,0,4,0,1,3,200,0,200,0,1,199,,NaN,200,0,200,0,1,199,space,0.19765,,NaN,,NaN
NaN,NaN,NaN,NaN,NaN,"",NaN,NaN,"",NaN,NaN,NaN,NaN,NaN,NaN,NaN,NaN,NaN,NaN,NaN,NaN,NaN,NaN,NaN,NaN,NaN,NaN,NaN,NaN,NaN,,NaN,NaN,NaN,NaN,NaN,,NaN,NaN,NaN,NaN,NaN,NaN,NaN,,NaN,NaN,NaN,NaN,NaN,NaN,37,1,2020-11-11_16h15.44.514,Pirates_expt3,2020.1.2,Win32,60,NaN,NaN,NaN,NaN,NaN,NaN,NaN,,NaN,NaN,NaN,NaN,NaN,NaN,,NaN,NaN,NaN,NaN,NaN,NaN,"",,NaN,NaN,NaN,NaN,NaN,NaN,NaN,NaN,NaN,NaN,NaN,NaN,NaN,,NaN,3,0,3,0,1,NaN,,NaN,,NaN,,NaN
NaN,NaN,NaN,NaN,NaN,"",NaN,NaN,"",NaN,NaN,1,1,47,1,37,72,98,0.05,0.15,0.1,0.05,37,98,72,0.05,0.1,0.15,2,3,0,0,37,37,2633,56,space,0.25848,0,47,2633,56,144,0,,NaN,NaN,NaN,NaN,NaN,NaN,37,1,2020-11-11_16h15.44.514,Pirates_expt3,2020.1.2,Win32,60,NaN,NaN,NaN,NaN,NaN,NaN,NaN,,NaN,NaN,NaN,NaN,NaN,NaN,,NaN,NaN,NaN,NaN,NaN,NaN,"",,NaN,4,0,4,0,1,3,200,0,200,0,1,199,,NaN,200,0,200,0,1,199,,NaN,,NaN,,NaN
NaN,NaN,NaN,NaN,NaN,"",NaN,NaN,"",NaN,NaN,1,1,46,1,37,76,98,0.05,0.15,0.1,0.05,37,98,76,0.05,0.1,0.15,0,4,0,0,37,37,2670,57,0,0,0,46,2670,57,143,0,,NaN,NaN,NaN,NaN,NaN,NaN,37,1,2020-11-11_16h15.44.514,Pirates_expt3,2020.1.2,Win32,60,NaN,NaN,NaN,NaN,NaN,NaN,NaN,,NaN,NaN,NaN,NaN,NaN,NaN,,NaN,NaN,NaN,NaN,NaN,NaN,"",,NaN,4,0,4,0,1,3,200,0,200,0,1,199,,NaN,200,0,200,0,1,199,space,0.25848,,NaN,,NaN
NaN,NaN,NaN,NaN,NaN,"",NaN,NaN,"",NaN,NaN,NaN,NaN,NaN,NaN,NaN,NaN,NaN,NaN,NaN,NaN,NaN,NaN,NaN,NaN,NaN,NaN,NaN,NaN,NaN,,NaN,NaN,NaN,NaN,NaN,,NaN,NaN,NaN,NaN,NaN,NaN,NaN,,NaN,NaN,NaN,NaN,NaN,NaN,37,1,2020-11-11_16h15.44.514,Pirates_expt3,2020.1.2,Win32,60,NaN,NaN,NaN,NaN,NaN,NaN,NaN,,NaN,NaN,NaN,NaN,NaN,NaN,,NaN,NaN,NaN,NaN,NaN,NaN,"",,NaN,NaN,NaN,NaN,NaN,NaN,NaN,NaN,NaN,NaN,NaN,NaN,NaN,,NaN,4,0,4,0,1,NaN,,NaN,,NaN,,NaN
NaN,NaN,NaN,NaN,NaN,"",NaN,NaN,"",NaN,NaN,1,1,46,1,29,76,98,0.05,0.15,0.1,0.05,29,98,76,0.05,0.1,0.15,2,3,0,0,29,29,2670,57,space,0.280505,0,46,2670,57,143,0,,NaN,NaN,NaN,NaN,NaN,NaN,37,1,2020-11-11_16h15.44.514,Pirates_expt3,2020.1.2,Win32,60,NaN,NaN,NaN,NaN,NaN,NaN,NaN,,NaN,NaN,NaN,NaN,NaN,NaN,,NaN,NaN,NaN,NaN,NaN,NaN,"",,NaN,4,0,4,0,1,3,200,0,200,0,1,199,,NaN,200,0,200,0,1,199,,NaN,,NaN,,NaN
NaN,NaN,NaN,NaN,NaN,"",NaN,NaN,"",NaN,NaN,1,1,46,1,29,80,98,0.05,0.15,0.1,0.05,29,98,80,0.05,0.1,0.15,0,4,0,0,29,29,2699,58,0,0,0,46,2699,58,142,0,,NaN,NaN,NaN,NaN,NaN,NaN,37,1,2020-11-11_16h15.44.514,Pirates_expt3,2020.1.2,Win32,60,NaN,NaN,NaN,NaN,NaN,NaN,NaN,,NaN,NaN,NaN,NaN,NaN,NaN,,NaN,NaN,NaN,NaN,NaN,NaN,"",,NaN,4,0,4,0,1,3,200,0,200,0,1,199,,NaN,200,0,200,0,1,199,space,0.280505,,NaN,,NaN
NaN,NaN,NaN,NaN,NaN,"",NaN,NaN,"",NaN,NaN,NaN,NaN,NaN,NaN,NaN,NaN,NaN,NaN,NaN,NaN,NaN,NaN,NaN,NaN,NaN,NaN,NaN,NaN,NaN,,NaN,NaN,NaN,NaN,NaN,,NaN,NaN,NaN,NaN,NaN,NaN,NaN,,NaN,NaN,NaN,NaN,NaN,NaN,37,1,2020-11-11_16h15.44.514,Pirates_expt3,2020.1.2,Win32,60,NaN,NaN,NaN,NaN,NaN,NaN,NaN,,NaN,NaN,NaN,NaN,NaN,NaN,,NaN,NaN,NaN,NaN,NaN,NaN,"",,NaN,NaN,NaN,NaN,NaN,NaN,NaN,NaN,NaN,NaN,NaN,NaN,NaN,,NaN,5,0,5,0,1,NaN,,NaN,,NaN,,NaN
NaN,NaN,NaN,NaN,NaN,"",NaN,NaN,"",NaN,NaN,1,1,46,1,21,80,98,0.05,0.15,0.1,0.05,21,98,80,0.05,0.1,0.15,2,3,0,0,21,21,2699,58,space,0.166555,0,46,2699,58,142,0,,NaN,NaN,NaN,NaN,NaN,NaN,37,1,2020-11-11_16h15.44.514,Pirates_expt3,2020.1.2,Win32,60,NaN,NaN,NaN,NaN,NaN,NaN,NaN,,NaN,NaN,NaN,NaN,NaN,NaN,,NaN,NaN,NaN,NaN,NaN,NaN,"",,NaN,4,0,4,0,1,3,200,0,200,0,1,199,,NaN,200,0,200,0,1,199,,NaN,,NaN,,NaN
NaN,NaN,NaN,NaN,NaN,"",NaN,NaN,"",NaN,NaN,1,1,46,1,21,83,98,0.05,0.15,0.1,0.05,21,98,83,0.05,0.1,0.15,0,4,0,0,21,21,2720,59,0,0,0,46,2720,59,141,0,,NaN,NaN,NaN,NaN,NaN,NaN,37,1,2020-11-11_16h15.44.514,Pirates_expt3,2020.1.2,Win32,60,NaN,NaN,NaN,NaN,NaN,NaN,NaN,,NaN,NaN,NaN,NaN,NaN,NaN,,NaN,NaN,NaN,NaN,NaN,NaN,"",,NaN,4,0,4,0,1,3,200,0,200,0,1,199,,NaN,200,0,200,0,1,199,space,0.166555,,NaN,,NaN
NaN,NaN,NaN,NaN,NaN,"",NaN,NaN,"",NaN,NaN,NaN,NaN,NaN,NaN,NaN,NaN,NaN,NaN,NaN,NaN,NaN,NaN,NaN,NaN,NaN,NaN,NaN,NaN,NaN,,NaN,NaN,NaN,NaN,NaN,,NaN,NaN,NaN,NaN,NaN,NaN,NaN,,NaN,NaN,NaN,NaN,NaN,NaN,37,1,2020-11-11_16h15.44.514,Pirates_expt3,2020.1.2,Win32,60,NaN,NaN,NaN,NaN,NaN,NaN,NaN,,NaN,NaN,NaN,NaN,NaN,NaN,,NaN,NaN,NaN,NaN,NaN,NaN,"",,NaN,NaN,NaN,NaN,NaN,NaN,NaN,NaN,NaN,NaN,NaN,NaN,NaN,,NaN,6,0,6,0,1,NaN,,NaN,,NaN,,NaN
NaN,NaN,NaN,NaN,NaN,"",NaN,NaN,"",NaN,NaN,1,1,46,1,14,83,98,0.05,0.15,0.1,0.05,14,98,83,0.05,0.1,0.15,2,3,0,0,14,14,2720,59,space,0.129815,0,46,2720,59,141,0,,NaN,NaN,NaN,NaN,NaN,NaN,37,1,2020-11-11_16h15.44.514,Pirates_expt3,2020.1.2,Win32,60,NaN,NaN,NaN,NaN,NaN,NaN,NaN,,NaN,NaN,NaN,NaN,NaN,NaN,,NaN,NaN,NaN,NaN,NaN,NaN,"",,NaN,4,0,4,0,1,3,200,0,200,0,1,199,,NaN,200,0,200,0,1,199,,NaN,,NaN,,NaN
NaN,NaN,NaN,NaN,NaN,"",NaN,NaN,"",NaN,NaN,1,1,45,1,14,85,98,0.05,0.15,0.1,0.05,14,98,85,0.05,0.1,0.15,0,4,0,0,14,14,2735,60,0,0,0,45,2735,60,140,0,,NaN,NaN,NaN,NaN,NaN,NaN,37,1,2020-11-11_16h15.44.514,Pirates_expt3,2020.1.2,Win32,60,NaN,NaN,NaN,NaN,NaN,NaN,NaN,,NaN,NaN,NaN,NaN,NaN,NaN,,NaN,NaN,NaN,NaN,NaN,NaN,"",,NaN,4,0,4,0,1,3,200,0,200,0,1,199,,NaN,200,0,200,0,1,199,space,0.129815,,NaN,,NaN
NaN,NaN,NaN,NaN,NaN,"",NaN,NaN,"",NaN,NaN,NaN,NaN,NaN,NaN,NaN,NaN,NaN,NaN,NaN,NaN,NaN,NaN,NaN,NaN,NaN,NaN,NaN,NaN,NaN,,NaN,NaN,NaN,NaN,NaN,,NaN,NaN,NaN,NaN,NaN,NaN,NaN,,NaN,NaN,NaN,NaN,NaN,NaN,37,1,2020-11-11_16h15.44.514,Pirates_expt3,2020.1.2,Win32,60,NaN,NaN,NaN,NaN,NaN,NaN,NaN,,NaN,NaN,NaN,NaN,NaN,NaN,,NaN,NaN,NaN,NaN,NaN,NaN,"",,NaN,NaN,NaN,NaN,NaN,NaN,NaN,NaN,NaN,NaN,NaN,NaN,NaN,,NaN,7,0,7,0,1,NaN,,NaN,,NaN,,NaN
NaN,NaN,NaN,NaN,NaN,"",NaN,NaN,"",NaN,NaN,1,1,45,1,9,85,98,0.05,0.15,0.1,0.05,9,98,85,0.05,0.1,0.15,2,3,0,0,9,9,2735,60,space,0.012005,0,45,2735,60,140,0,,NaN,NaN,NaN,NaN,NaN,NaN,37,1,2020-11-11_16h15.44.514,Pirates_expt3,2020.1.2,Win32,60,NaN,NaN,NaN,NaN,NaN,NaN,NaN,,NaN,NaN,NaN,NaN,NaN,NaN,,NaN,NaN,NaN,NaN,NaN,NaN,"",,NaN,4,0,4,0,1,3,200,0,200,0,1,199,,NaN,200,0,200,0,1,199,,NaN,,NaN,,NaN
NaN,NaN,NaN,NaN,NaN,"",NaN,NaN,"",NaN,NaN,1,1,45,1,9,87,98,0.05,0.15,0.1,0.05,9,98,87,0.05,0.1,0.15,0,4,0,0,9,9,2745,61,0,0,0,45,2745,61,139,0,,NaN,NaN,NaN,NaN,NaN,NaN,37,1,2020-11-11_16h15.44.514,Pirates_expt3,2020.1.2,Win32,60,NaN,NaN,NaN,NaN,NaN,NaN,NaN,,NaN,NaN,NaN,NaN,NaN,NaN,,NaN,NaN,NaN,NaN,NaN,NaN,"",,NaN,4,0,4,0,1,3,200,0,200,0,1,199,,NaN,200,0,200,0,1,199,space,0.012005,,NaN,,NaN
NaN,NaN,NaN,NaN,NaN,"",NaN,NaN,"",NaN,NaN,NaN,NaN,NaN,NaN,NaN,NaN,NaN,NaN,NaN,NaN,NaN,NaN,NaN,NaN,NaN,NaN,NaN,NaN,NaN,,NaN,NaN,NaN,NaN,NaN,,NaN,NaN,NaN,NaN,NaN,NaN,NaN,,NaN,NaN,NaN,NaN,NaN,NaN,37,1,2020-11-11_16h15.44.514,Pirates_expt3,2020.1.2,Win32,60,NaN,NaN,NaN,NaN,NaN,NaN,NaN,,NaN,NaN,NaN,NaN,NaN,NaN,,NaN,NaN,NaN,NaN,NaN,NaN,"",,NaN,NaN,NaN,NaN,NaN,NaN,NaN,NaN,NaN,NaN,NaN,NaN,NaN,,NaN,8,0,8,0,1,NaN,,NaN,,NaN,,NaN
NaN,NaN,NaN,NaN,NaN,"",NaN,NaN,"",NaN,NaN,1,1,45,1,6,87,98,0.05,0.15,0.1,0.05,6,98,87,0.05,0.1,0.15,3,3,0,0,6,6,2745,61,s,0.297695,9,45,2745,61,139,0,,NaN,NaN,NaN,NaN,NaN,NaN,37,1,2020-11-11_16h15.44.514,Pirates_expt3,2020.1.2,Win32,60,NaN,NaN,NaN,NaN,NaN,NaN,NaN,,NaN,NaN,NaN,NaN,NaN,NaN,,NaN,NaN,NaN,NaN,NaN,NaN,"",,NaN,4,0,4,0,1,3,200,0,200,0,1,199,,NaN,200,0,200,0,1,199,,NaN,,NaN,,NaN
NaN,NaN,NaN,NaN,NaN,"",NaN,NaN,"",NaN,NaN,1,1,44,1,10,89,99,0.05,0.15,0.1,0.05,10,99,89,0.05,0.1,0.15,0,4,0,0,10,6,2745,62,0,0,0,44,2745,62,138,15.732,,NaN,NaN,NaN,NaN,NaN,NaN,37,1,2020-11-11_16h15.44.514,Pirates_expt3,2020.1.2,Win32,60,NaN,NaN,NaN,NaN,NaN,NaN,NaN,,NaN,NaN,NaN,NaN,NaN,NaN,,NaN,NaN,NaN,NaN,NaN,NaN,"",,NaN,4,0,4,0,1,3,200,0,200,0,1,199,,NaN,200,0,200,0,1,199,s,0.297695,,NaN,,NaN
NaN,NaN,NaN,NaN,NaN,"",NaN,NaN,"",NaN,NaN,NaN,NaN,NaN,NaN,NaN,NaN,NaN,NaN,NaN,NaN,NaN,NaN,NaN,NaN,NaN,NaN,NaN,NaN,NaN,,NaN,NaN,NaN,NaN,NaN,,NaN,NaN,NaN,NaN,NaN,NaN,NaN,,NaN,NaN,NaN,NaN,NaN,NaN,37,1,2020-11-11_16h15.44.514,Pirates_expt3,2020.1.2,Win32,60,NaN,NaN,NaN,NaN,NaN,NaN,NaN,,NaN,NaN,NaN,NaN,NaN,NaN,,NaN,NaN,NaN,NaN,NaN,NaN,"",,NaN,NaN,NaN,NaN,NaN,NaN,NaN,7,0,7,0,1,NaN,,NaN,NaN,NaN,NaN,NaN,NaN,NaN,,NaN,,NaN,,NaN
NaN,NaN,NaN,NaN,NaN,"",NaN,NaN,"",NaN,NaN,1,1,44,3,10,89,99,0.05,0.15,0.1,0.1,10,99,89,0.05,0.1,0.15,1,1,k,0.74196,0,0,2745,63,N/A,0,0,44,2745,63,137,0,,NaN,NaN,NaN,NaN,NaN,NaN,37,1,2020-11-11_16h15.44.514,Pirates_expt3,2020.1.2,Win32,60,NaN,NaN,NaN,NaN,NaN,NaN,NaN,,NaN,NaN,NaN,NaN,NaN,NaN,,NaN,NaN,NaN,NaN,NaN,NaN,"",,NaN,4,0,4,0,1,3,200,0,200,0,1,199,,NaN,NaN,NaN,NaN,NaN,NaN,NaN,,NaN,,NaN,,NaN
NaN,NaN,NaN,NaN,NaN,"",NaN,NaN,"",NaN,NaN,1,1,44,3,15,91,99,0.05,0.15,0.1,0.1,15,99,91,0.05,0.1,0.15,0,2,0,0,0,0,2745,63,N/A,0,0,44,2745,63,137,0,,NaN,NaN,NaN,NaN,NaN,NaN,37,1,2020-11-11_16h15.44.514,Pirates_expt3,2020.1.2,Win32,60,NaN,NaN,NaN,NaN,NaN,NaN,NaN,,NaN,NaN,NaN,NaN,NaN,NaN,,NaN,NaN,NaN,NaN,NaN,NaN,"",,NaN,4,0,4,0,1,3,200,0,200,0,1,199,k,0.74196,NaN,NaN,NaN,NaN,NaN,NaN,,NaN,,NaN,,NaN
NaN,NaN,NaN,NaN,NaN,"",NaN,NaN,"",NaN,NaN,1,1,43,3,15,91,99,0.05,0.15,0.1,0.1,15,99,91,0.05,0.1,0.15,2,3,0,0,99,99,2745,63,space,0.19294,0,43,2745,63,137,0,,NaN,NaN,NaN,NaN,NaN,NaN,37,1,2020-11-11_16h15.44.514,Pirates_expt3,2020.1.2,Win32,60,NaN,NaN,NaN,NaN,NaN,NaN,NaN,,NaN,NaN,NaN,NaN,NaN,NaN,,NaN,NaN,NaN,NaN,NaN,NaN,"",,NaN,4,0,4,0,1,3,200,0,200,0,1,199,,NaN,200,0,200,0,1,199,,NaN,,NaN,,NaN
NaN,NaN,NaN,NaN,NaN,"",NaN,NaN,"",NaN,NaN,1,1,44,3,19,92,99,0.05,0.15,0.1,0.1,19,99,92,0.05,0.1,0.15,0,4,0,0,99,99,2844,64,0,0,0,44,2844,64,136,0,,NaN,NaN,NaN,NaN,NaN,NaN,37,1,2020-11-11_16h15.44.514,Pirates_expt3,2020.1.2,Win32,60,NaN,NaN,NaN,NaN,NaN,NaN,NaN,,NaN,NaN,NaN,NaN,NaN,NaN,,NaN,NaN,NaN,NaN,NaN,NaN,"",,NaN,4,0,4,0,1,3,200,0,200,0,1,199,,NaN,200,0,200,0,1,199,space,0.19294,,NaN,,NaN
NaN,NaN,NaN,NaN,NaN,"",NaN,NaN,"",NaN,NaN,NaN,NaN,NaN,NaN,NaN,NaN,NaN,NaN,NaN,NaN,NaN,NaN,NaN,NaN,NaN,NaN,NaN,NaN,NaN,,NaN,NaN,NaN,NaN,NaN,,NaN,NaN,NaN,NaN,NaN,NaN,NaN,,NaN,NaN,NaN,NaN,NaN,NaN,37,1,2020-11-11_16h15.44.514,Pirates_expt3,2020.1.2,Win32,60,NaN,NaN,NaN,NaN,NaN,NaN,NaN,,NaN,NaN,NaN,NaN,NaN,NaN,,NaN,NaN,NaN,NaN,NaN,NaN,"",,NaN,NaN,NaN,NaN,NaN,NaN,NaN,NaN,NaN,NaN,NaN,NaN,NaN,,NaN,0,0,0,0,1,NaN,,NaN,,NaN,,NaN
NaN,NaN,NaN,NaN,NaN,"",NaN,NaN,"",NaN,NaN,1,1,44,3,19,92,94,0.05,0.15,0.1,0.1,19,94,92,0.05,0.1,0.15,2,3,0,0,94,94,2844,64,space,0.083475,0,44,2844,64,136,0,,NaN,NaN,NaN,NaN,NaN,NaN,37,1,2020-11-11_16h15.44.514,Pirates_expt3,2020.1.2,Win32,60,NaN,NaN,NaN,NaN,NaN,NaN,NaN,,NaN,NaN,NaN,NaN,NaN,NaN,,NaN,NaN,NaN,NaN,NaN,NaN,"",,NaN,4,0,4,0,1,3,200,0,200,0,1,199,,NaN,200,0,200,0,1,199,,NaN,,NaN,,NaN
NaN,NaN,NaN,NaN,NaN,"",NaN,NaN,"",NaN,NaN,1,1,45,3,23,93,94,0.05,0.15,0.1,0.1,23,94,93,0.05,0.1,0.15,0,4,0,0,94,94,2938,65,0,0,0,45,2938,65,135,0,,NaN,NaN,NaN,NaN,NaN,NaN,37,1,2020-11-11_16h15.44.514,Pirates_expt3,2020.1.2,Win32,60,NaN,NaN,NaN,NaN,NaN,NaN,NaN,,NaN,NaN,NaN,NaN,NaN,NaN,,NaN,NaN,NaN,NaN,NaN,NaN,"",,NaN,4,0,4,0,1,3,200,0,200,0,1,199,,NaN,200,0,200,0,1,199,space,0.083475,,NaN,,NaN
NaN,NaN,NaN,NaN,NaN,"",NaN,NaN,"",NaN,NaN,NaN,NaN,NaN,NaN,NaN,NaN,NaN,NaN,NaN,NaN,NaN,NaN,NaN,NaN,NaN,NaN,NaN,NaN,NaN,,NaN,NaN,NaN,NaN,NaN,,NaN,NaN,NaN,NaN,NaN,NaN,NaN,,NaN,NaN,NaN,NaN,NaN,NaN,37,1,2020-11-11_16h15.44.514,Pirates_expt3,2020.1.2,Win32,60,NaN,NaN,NaN,NaN,NaN,NaN,NaN,,NaN,NaN,NaN,NaN,NaN,NaN,,NaN,NaN,NaN,NaN,NaN,NaN,"",,NaN,NaN,NaN,NaN,NaN,NaN,NaN,NaN,NaN,NaN,NaN,NaN,NaN,,NaN,1,0,1,0,1,NaN,,NaN,,NaN,,NaN
NaN,NaN,NaN,NaN,NaN,"",NaN,NaN,"",NaN,NaN,1,1,45,3,23,93,84,0.05,0.15,0.1,0.1,23,84,93,0.05,0.1,0.15,2,3,0,0,84,84,2938,65,space,0.01507,0,45,2938,65,135,0,,NaN,NaN,NaN,NaN,NaN,NaN,37,1,2020-11-11_16h15.44.514,Pirates_expt3,2020.1.2,Win32,60,NaN,NaN,NaN,NaN,NaN,NaN,NaN,,NaN,NaN,NaN,NaN,NaN,NaN,,NaN,NaN,NaN,NaN,NaN,NaN,"",,NaN,4,0,4,0,1,3,200,0,200,0,1,199,,NaN,200,0,200,0,1,199,,NaN,,NaN,,NaN
NaN,NaN,NaN,NaN,NaN,"",NaN,NaN,"",NaN,NaN,1,1,45,3,27,94,84,0.05,0.15,0.1,0.1,27,84,94,0.05,0.1,0.15,0,4,0,0,84,84,3023,66,0,0,0,45,3023,66,134,0,,NaN,NaN,NaN,NaN,NaN,NaN,37,1,2020-11-11_16h15.44.514,Pirates_expt3,2020.1.2,Win32,60,NaN,NaN,NaN,NaN,NaN,NaN,NaN,,NaN,NaN,NaN,NaN,NaN,NaN,,NaN,NaN,NaN,NaN,NaN,NaN,"",,NaN,4,0,4,0,1,3,200,0,200,0,1,199,,NaN,200,0,200,0,1,199,space,0.01507,,NaN,,NaN
NaN,NaN,NaN,NaN,NaN,"",NaN,NaN,"",NaN,NaN,NaN,NaN,NaN,NaN,NaN,NaN,NaN,NaN,NaN,NaN,NaN,NaN,NaN,NaN,NaN,NaN,NaN,NaN,NaN,,NaN,NaN,NaN,NaN,NaN,,NaN,NaN,NaN,NaN,NaN,NaN,NaN,,NaN,NaN,NaN,NaN,NaN,NaN,37,1,2020-11-11_16h15.44.514,Pirates_expt3,2020.1.2,Win32,60,NaN,NaN,NaN,NaN,NaN,NaN,NaN,,NaN,NaN,NaN,NaN,NaN,NaN,,NaN,NaN,NaN,NaN,NaN,NaN,"",,NaN,NaN,NaN,NaN,NaN,NaN,NaN,NaN,NaN,NaN,NaN,NaN,NaN,,NaN,2,0,2,0,1,NaN,,NaN,,NaN,,NaN
NaN,NaN,NaN,NaN,NaN,"",NaN,NaN,"",NaN,NaN,1,1,45,3,27,94,72,0.05,0.15,0.1,0.1,27,72,94,0.05,0.1,0.15,2,3,0,0,72,72,3023,66,space,0.16454,0,45,3023,66,134,0,,NaN,NaN,NaN,NaN,NaN,NaN,37,1,2020-11-11_16h15.44.514,Pirates_expt3,2020.1.2,Win32,60,NaN,NaN,NaN,NaN,NaN,NaN,NaN,,NaN,NaN,NaN,NaN,NaN,NaN,,NaN,NaN,NaN,NaN,NaN,NaN,"",,NaN,4,0,4,0,1,3,200,0,200,0,1,199,,NaN,200,0,200,0,1,199,,NaN,,NaN,,NaN
NaN,NaN,NaN,NaN,NaN,"",NaN,NaN,"",NaN,NaN,1,1,46,3,31,95,72,0.05,0.15,0.1,0.1,31,72,95,0.05,0.1,0.15,0,4,0,0,72,72,3096,67,0,0,0,46,3096,67,133,0,,NaN,NaN,NaN,NaN,NaN,NaN,37,1,2020-11-11_16h15.44.514,Pirates_expt3,2020.1.2,Win32,60,NaN,NaN,NaN,NaN,NaN,NaN,NaN,,NaN,NaN,NaN,NaN,NaN,NaN,,NaN,NaN,NaN,NaN,NaN,NaN,"",,NaN,4,0,4,0,1,3,200,0,200,0,1,199,,NaN,200,0,200,0,1,199,space,0.16454,,NaN,,NaN
NaN,NaN,NaN,NaN,NaN,"",NaN,NaN,"",NaN,NaN,NaN,NaN,NaN,NaN,NaN,NaN,NaN,NaN,NaN,NaN,NaN,NaN,NaN,NaN,NaN,NaN,NaN,NaN,NaN,,NaN,NaN,NaN,NaN,NaN,,NaN,NaN,NaN,NaN,NaN,NaN,NaN,,NaN,NaN,NaN,NaN,NaN,NaN,37,1,2020-11-11_16h15.44.514,Pirates_expt3,2020.1.2,Win32,60,NaN,NaN,NaN,NaN,NaN,NaN,NaN,,NaN,NaN,NaN,NaN,NaN,NaN,,NaN,NaN,NaN,NaN,NaN,NaN,"",,NaN,NaN,NaN,NaN,NaN,NaN,NaN,NaN,NaN,NaN,NaN,NaN,NaN,,NaN,3,0,3,0,1,NaN,,NaN,,NaN,,NaN
NaN,NaN,NaN,NaN,NaN,"",NaN,NaN,"",NaN,NaN,1,1,46,3,31,95,59,0.05,0.15,0.1,0.1,31,59,95,0.05,0.1,0.15,2,3,0,0,59,59,3096,67,space,0.230935,0,46,3096,67,133,0,,NaN,NaN,NaN,NaN,NaN,NaN,37,1,2020-11-11_16h15.44.514,Pirates_expt3,2020.1.2,Win32,60,NaN,NaN,NaN,NaN,NaN,NaN,NaN,,NaN,NaN,NaN,NaN,NaN,NaN,,NaN,NaN,NaN,NaN,NaN,NaN,"",,NaN,4,0,4,0,1,3,200,0,200,0,1,199,,NaN,200,0,200,0,1,199,,NaN,,NaN,,NaN
NaN,NaN,NaN,NaN,NaN,"",NaN,NaN,"",NaN,NaN,1,1,46,3,34,96,59,0.05,0.15,0.1,0.1,34,59,96,0.05,0.1,0.15,0,4,0,0,59,59,3156,68,0,0,0,46,3156,68,132,0,,NaN,NaN,NaN,NaN,NaN,NaN,37,1,2020-11-11_16h15.44.514,Pirates_expt3,2020.1.2,Win32,60,NaN,NaN,NaN,NaN,NaN,NaN,NaN,,NaN,NaN,NaN,NaN,NaN,NaN,,NaN,NaN,NaN,NaN,NaN,NaN,"",,NaN,4,0,4,0,1,3,200,0,200,0,1,199,,NaN,200,0,200,0,1,199,space,0.230935,,NaN,,NaN
NaN,NaN,NaN,NaN,NaN,"",NaN,NaN,"",NaN,NaN,NaN,NaN,NaN,NaN,NaN,NaN,NaN,NaN,NaN,NaN,NaN,NaN,NaN,NaN,NaN,NaN,NaN,NaN,NaN,,NaN,NaN,NaN,NaN,NaN,,NaN,NaN,NaN,NaN,NaN,NaN,NaN,,NaN,NaN,NaN,NaN,NaN,NaN,37,1,2020-11-11_16h15.44.514,Pirates_expt3,2020.1.2,Win32,60,NaN,NaN,NaN,NaN,NaN,NaN,NaN,,NaN,NaN,NaN,NaN,NaN,NaN,,NaN,NaN,NaN,NaN,NaN,NaN,"",,NaN,NaN,NaN,NaN,NaN,NaN,NaN,NaN,NaN,NaN,NaN,NaN,NaN,,NaN,4,0,4,0,1,NaN,,NaN,,NaN,,NaN
NaN,NaN,NaN,NaN,NaN,"",NaN,NaN,"",NaN,NaN,1,1,46,3,34,96,45,0.05,0.15,0.1,0.1,34,45,96,0.05,0.1,0.15,2,3,0,0,45,45,3156,68,space,0.099745,0,46,3156,68,132,0,,NaN,NaN,NaN,NaN,NaN,NaN,37,1,2020-11-11_16h15.44.514,Pirates_expt3,2020.1.2,Win32,60,NaN,NaN,NaN,NaN,NaN,NaN,NaN,,NaN,NaN,NaN,NaN,NaN,NaN,,NaN,NaN,NaN,NaN,NaN,NaN,"",,NaN,4,0,4,0,1,3,200,0,200,0,1,199,,NaN,200,0,200,0,1,199,,NaN,,NaN,,NaN
NaN,NaN,NaN,NaN,NaN,"",NaN,NaN,"",NaN,NaN,1,1,46,3,37,96,45,0.05,0.15,0.1,0.1,37,45,96,0.05,0.1,0.15,0,4,0,0,45,45,3201,69,0,0,0,46,3201,69,131,0,,NaN,NaN,NaN,NaN,NaN,NaN,37,1,2020-11-11_16h15.44.514,Pirates_expt3,2020.1.2,Win32,60,NaN,NaN,NaN,NaN,NaN,NaN,NaN,,NaN,NaN,NaN,NaN,NaN,NaN,,NaN,NaN,NaN,NaN,NaN,NaN,"",,NaN,4,0,4,0,1,3,200,0,200,0,1,199,,NaN,200,0,200,0,1,199,space,0.099745,,NaN,,NaN
NaN,NaN,NaN,NaN,NaN,"",NaN,NaN,"",NaN,NaN,NaN,NaN,NaN,NaN,NaN,NaN,NaN,NaN,NaN,NaN,NaN,NaN,NaN,NaN,NaN,NaN,NaN,NaN,NaN,,NaN,NaN,NaN,NaN,NaN,,NaN,NaN,NaN,NaN,NaN,NaN,NaN,,NaN,NaN,NaN,NaN,NaN,NaN,37,1,2020-11-11_16h15.44.514,Pirates_expt3,2020.1.2,Win32,60,NaN,NaN,NaN,NaN,NaN,NaN,NaN,,NaN,NaN,NaN,NaN,NaN,NaN,,NaN,NaN,NaN,NaN,NaN,NaN,"",,NaN,NaN,NaN,NaN,NaN,NaN,NaN,NaN,NaN,NaN,NaN,NaN,NaN,,NaN,5,0,5,0,1,NaN,,NaN,,NaN,,NaN
NaN,NaN,NaN,NaN,NaN,"",NaN,NaN,"",NaN,NaN,1,1,46,3,37,96,33,0.05,0.15,0.1,0.1,37,33,96,0.05,0.1,0.15,2,3,0,0,33,33,3201,69,space,0.07382,0,46,3201,69,131,0,,NaN,NaN,NaN,NaN,NaN,NaN,37,1,2020-11-11_16h15.44.514,Pirates_expt3,2020.1.2,Win32,60,NaN,NaN,NaN,NaN,NaN,NaN,NaN,,NaN,NaN,NaN,NaN,NaN,NaN,,NaN,NaN,NaN,NaN,NaN,NaN,"",,NaN,4,0,4,0,1,3,200,0,200,0,1,199,,NaN,200,0,200,0,1,199,,NaN,,NaN,,NaN
NaN,NaN,NaN,NaN,NaN,"",NaN,NaN,"",NaN,NaN,1,1,46,3,40,97,33,0.05,0.15,0.1,0.1,40,33,97,0.05,0.1,0.15,0,4,0,0,33,33,3235,70,0,0,0,46,3235,70,130,0,,NaN,NaN,NaN,NaN,NaN,NaN,37,1,2020-11-11_16h15.44.514,Pirates_expt3,2020.1.2,Win32,60,NaN,NaN,NaN,NaN,NaN,NaN,NaN,,NaN,NaN,NaN,NaN,NaN,NaN,,NaN,NaN,NaN,NaN,NaN,NaN,"",,NaN,4,0,4,0,1,3,200,0,200,0,1,199,,NaN,200,0,200,0,1,199,space,0.07382,,NaN,,NaN
NaN,NaN,NaN,NaN,NaN,"",NaN,NaN,"",NaN,NaN,NaN,NaN,NaN,NaN,NaN,NaN,NaN,NaN,NaN,NaN,NaN,NaN,NaN,NaN,NaN,NaN,NaN,NaN,NaN,,NaN,NaN,NaN,NaN,NaN,,NaN,NaN,NaN,NaN,NaN,NaN,NaN,,NaN,NaN,NaN,NaN,NaN,NaN,37,1,2020-11-11_16h15.44.514,Pirates_expt3,2020.1.2,Win32,60,NaN,NaN,NaN,NaN,NaN,NaN,NaN,,NaN,NaN,NaN,NaN,NaN,NaN,,NaN,NaN,NaN,NaN,NaN,NaN,"",,NaN,NaN,NaN,NaN,NaN,NaN,NaN,NaN,NaN,NaN,NaN,NaN,NaN,,NaN,6,0,6,0,1,NaN,,NaN,,NaN,,NaN
NaN,NaN,NaN,NaN,NaN,"",NaN,NaN,"",NaN,NaN,1,1,46,3,40,97,23,0.05,0.15,0.1,0.1,40,23,97,0.05,0.1,0.15,2,3,0,0,23,23,3235,70,space,0.049045,0,46,3235,70,130,0,,NaN,NaN,NaN,NaN,NaN,NaN,37,1,2020-11-11_16h15.44.514,Pirates_expt3,2020.1.2,Win32,60,NaN,NaN,NaN,NaN,NaN,NaN,NaN,,NaN,NaN,NaN,NaN,NaN,NaN,,NaN,NaN,NaN,NaN,NaN,NaN,"",,NaN,4,0,4,0,1,3,200,0,200,0,1,199,,NaN,200,0,200,0,1,199,,NaN,,NaN,,NaN
NaN,NaN,NaN,NaN,NaN,"",NaN,NaN,"",NaN,NaN,1,1,45,3,43,97,23,0.05,0.15,0.1,0.1,43,23,97,0.05,0.1,0.15,0,4,0,0,23,23,3259,71,0,0,0,45,3259,71,129,0,,NaN,NaN,NaN,NaN,NaN,NaN,37,1,2020-11-11_16h15.44.514,Pirates_expt3,2020.1.2,Win32,60,NaN,NaN,NaN,NaN,NaN,NaN,NaN,,NaN,NaN,NaN,NaN,NaN,NaN,,NaN,NaN,NaN,NaN,NaN,NaN,"",,NaN,4,0,4,0,1,3,200,0,200,0,1,199,,NaN,200,0,200,0,1,199,space,0.049045,,NaN,,NaN
NaN,NaN,NaN,NaN,NaN,"",NaN,NaN,"",NaN,NaN,NaN,NaN,NaN,NaN,NaN,NaN,NaN,NaN,NaN,NaN,NaN,NaN,NaN,NaN,NaN,NaN,NaN,NaN,NaN,,NaN,NaN,NaN,NaN,NaN,,NaN,NaN,NaN,NaN,NaN,NaN,NaN,,NaN,NaN,NaN,NaN,NaN,NaN,37,1,2020-11-11_16h15.44.514,Pirates_expt3,2020.1.2,Win32,60,NaN,NaN,NaN,NaN,NaN,NaN,NaN,,NaN,NaN,NaN,NaN,NaN,NaN,,NaN,NaN,NaN,NaN,NaN,NaN,"",,NaN,NaN,NaN,NaN,NaN,NaN,NaN,NaN,NaN,NaN,NaN,NaN,NaN,,NaN,7,0,7,0,1,NaN,,NaN,,NaN,,NaN
NaN,NaN,NaN,NaN,NaN,"",NaN,NaN,"",NaN,NaN,1,1,45,3,43,97,15,0.05,0.15,0.1,0.1,43,15,97,0.05,0.1,0.15,3,3,0,0,15,15,3259,71,s,0.29235,8,45,3259,71,129,0,,NaN,NaN,NaN,NaN,NaN,NaN,37,1,2020-11-11_16h15.44.514,Pirates_expt3,2020.1.2,Win32,60,NaN,NaN,NaN,NaN,NaN,NaN,NaN,,NaN,NaN,NaN,NaN,NaN,NaN,,NaN,NaN,NaN,NaN,NaN,NaN,"",,NaN,4,0,4,0,1,3,200,0,200,0,1,199,,NaN,200,0,200,0,1,199,,NaN,,NaN,,NaN
NaN,NaN,NaN,NaN,NaN,"",NaN,NaN,"",NaN,NaN,1,1,45,3,46,97,24,0.05,0.15,0.1,0.1,46,24,97,0.05,0.1,0.15,0,4,0,0,24,15,3259,72,0,0,0,45,3259,72,128,13.257,,NaN,NaN,NaN,NaN,NaN,NaN,37,1,2020-11-11_16h15.44.514,Pirates_expt3,2020.1.2,Win32,60,NaN,NaN,NaN,NaN,NaN,NaN,NaN,,NaN,NaN,NaN,NaN,NaN,NaN,,NaN,NaN,NaN,NaN,NaN,NaN,"",,NaN,4,0,4,0,1,3,200,0,200,0,1,199,,NaN,200,0,200,0,1,199,s,0.29235,,NaN,,NaN
NaN,NaN,NaN,NaN,NaN,"",NaN,NaN,"",NaN,NaN,NaN,NaN,NaN,NaN,NaN,NaN,NaN,NaN,NaN,NaN,NaN,NaN,NaN,NaN,NaN,NaN,NaN,NaN,NaN,,NaN,NaN,NaN,NaN,NaN,,NaN,NaN,NaN,NaN,NaN,NaN,NaN,,NaN,NaN,NaN,NaN,NaN,NaN,37,1,2020-11-11_16h15.44.514,Pirates_expt3,2020.1.2,Win32,60,NaN,NaN,NaN,NaN,NaN,NaN,NaN,,NaN,NaN,NaN,NaN,NaN,NaN,,NaN,NaN,NaN,NaN,NaN,NaN,"",,NaN,NaN,NaN,NaN,NaN,NaN,NaN,8,0,8,0,1,NaN,,NaN,NaN,NaN,NaN,NaN,NaN,NaN,,NaN,,NaN,,NaN
NaN,NaN,NaN,NaN,NaN,"",NaN,NaN,"",NaN,NaN,1,1,45,1,46,97,24,0.05,0.15,0.1,0.05,46,24,97,0.05,0.1,0.15,1,1,f,1.21841,0,0,3259,73,N/A,0,0,45,3259,73,127,0,,NaN,NaN,NaN,NaN,NaN,NaN,37,1,2020-11-11_16h15.44.514,Pirates_expt3,2020.1.2,Win32,60,NaN,NaN,NaN,NaN,NaN,NaN,NaN,,NaN,NaN,NaN,NaN,NaN,NaN,,NaN,NaN,NaN,NaN,NaN,NaN,"",,NaN,4,0,4,0,1,3,200,0,200,0,1,199,,NaN,NaN,NaN,NaN,NaN,NaN,NaN,,NaN,,NaN,,NaN
NaN,NaN,NaN,NaN,NaN,"",NaN,NaN,"",NaN,NaN,1,1,45,1,49,98,31,0.05,0.15,0.1,0.05,49,31,98,0.05,0.1,0.15,0,2,0,0,0,0,3259,73,N/A,0,0,45,3259,73,127,0,,NaN,NaN,NaN,NaN,NaN,NaN,37,1,2020-11-11_16h15.44.514,Pirates_expt3,2020.1.2,Win32,60,NaN,NaN,NaN,NaN,NaN,NaN,NaN,,NaN,NaN,NaN,NaN,NaN,NaN,,NaN,NaN,NaN,NaN,NaN,NaN,"",,NaN,4,0,4,0,1,3,200,0,200,0,1,199,f,1.21841,NaN,NaN,NaN,NaN,NaN,NaN,,NaN,,NaN,,NaN
NaN,NaN,NaN,NaN,NaN,"",NaN,NaN,"",NaN,NaN,1,1,44,1,49,98,31,0.05,0.15,0.1,0.05,49,31,98,0.05,0.1,0.15,2,3,0,0,49,49,3259,73,space,0.26839,0,44,3259,73,127,0,,NaN,NaN,NaN,NaN,NaN,NaN,37,1,2020-11-11_16h15.44.514,Pirates_expt3,2020.1.2,Win32,60,NaN,NaN,NaN,NaN,NaN,NaN,NaN,,NaN,NaN,NaN,NaN,NaN,NaN,,NaN,NaN,NaN,NaN,NaN,NaN,"",,NaN,4,0,4,0,1,3,200,0,200,0,1,199,,NaN,200,0,200,0,1,199,,NaN,,NaN,,NaN
NaN,NaN,NaN,NaN,NaN,"",NaN,NaN,"",NaN,NaN,1,1,44,1,49,98,38,0.05,0.15,0.1,0.05,49,38,98,0.05,0.1,0.15,0,4,0,0,49,49,3308,74,0,0,0,44,3308,74,126,0,,NaN,NaN,NaN,NaN,NaN,NaN,37,1,2020-11-11_16h15.44.514,Pirates_expt3,2020.1.2,Win32,60,NaN,NaN,NaN,NaN,NaN,NaN,NaN,,NaN,NaN,NaN,NaN,NaN,NaN,,NaN,NaN,NaN,NaN,NaN,NaN,"",,NaN,4,0,4,0,1,3,200,0,200,0,1,199,,NaN,200,0,200,0,1,199,space,0.26839,,NaN,,NaN
NaN,NaN,NaN,NaN,NaN,"",NaN,NaN,"",NaN,NaN,NaN,NaN,NaN,NaN,NaN,NaN,NaN,NaN,NaN,NaN,NaN,NaN,NaN,NaN,NaN,NaN,NaN,NaN,NaN,,NaN,NaN,NaN,NaN,NaN,,NaN,NaN,NaN,NaN,NaN,NaN,NaN,,NaN,NaN,NaN,NaN,NaN,NaN,37,1,2020-11-11_16h15.44.514,Pirates_expt3,2020.1.2,Win32,60,NaN,NaN,NaN,NaN,NaN,NaN,NaN,,NaN,NaN,NaN,NaN,NaN,NaN,,NaN,NaN,NaN,NaN,NaN,NaN,"",,NaN,NaN,NaN,NaN,NaN,NaN,NaN,NaN,NaN,NaN,NaN,NaN,NaN,,NaN,0,0,0,0,1,NaN,,NaN,,NaN,,NaN
NaN,NaN,NaN,NaN,NaN,"",NaN,NaN,"",NaN,NaN,1,1,44,1,46,98,38,0.05,0.15,0.1,0.05,46,38,98,0.05,0.1,0.15,2,3,0,0,46,46,3308,74,space,0.202705,0,44,3308,74,126,0,,NaN,NaN,NaN,NaN,NaN,NaN,37,1,2020-11-11_16h15.44.514,Pirates_expt3,2020.1.2,Win32,60,NaN,NaN,NaN,NaN,NaN,NaN,NaN,,NaN,NaN,NaN,NaN,NaN,NaN,,NaN,NaN,NaN,NaN,NaN,NaN,"",,NaN,4,0,4,0,1,3,200,0,200,0,1,199,,NaN,200,0,200,0,1,199,,NaN,,NaN,,NaN
NaN,NaN,NaN,NaN,NaN,"",NaN,NaN,"",NaN,NaN,1,1,44,1,46,98,44,0.05,0.15,0.1,0.05,46,44,98,0.05,0.1,0.15,0,4,0,0,46,46,3355,75,0,0,0,44,3355,75,125,0,,NaN,NaN,NaN,NaN,NaN,NaN,37,1,2020-11-11_16h15.44.514,Pirates_expt3,2020.1.2,Win32,60,NaN,NaN,NaN,NaN,NaN,NaN,NaN,,NaN,NaN,NaN,NaN,NaN,NaN,,NaN,NaN,NaN,NaN,NaN,NaN,"",,NaN,4,0,4,0,1,3,200,0,200,0,1,199,,NaN,200,0,200,0,1,199,space,0.202705,,NaN,,NaN
NaN,NaN,NaN,NaN,NaN,"",NaN,NaN,"",NaN,NaN,NaN,NaN,NaN,NaN,NaN,NaN,NaN,NaN,NaN,NaN,NaN,NaN,NaN,NaN,NaN,NaN,NaN,NaN,NaN,,NaN,NaN,NaN,NaN,NaN,,NaN,NaN,NaN,NaN,NaN,NaN,NaN,,NaN,NaN,NaN,NaN,NaN,NaN,37,1,2020-11-11_16h15.44.514,Pirates_expt3,2020.1.2,Win32,60,NaN,NaN,NaN,NaN,NaN,NaN,NaN,,NaN,NaN,NaN,NaN,NaN,NaN,,NaN,NaN,NaN,NaN,NaN,NaN,"",,NaN,NaN,NaN,NaN,NaN,NaN,NaN,NaN,NaN,NaN,NaN,NaN,NaN,,NaN,1,0,1,0,1,NaN,,NaN,,NaN,,NaN
NaN,NaN,NaN,NaN,NaN,"",NaN,NaN,"",NaN,NaN,1,1,44,1,42,98,44,0.05,0.15,0.1,0.05,42,44,98,0.05,0.1,0.15,2,3,0,0,42,42,3355,75,space,0.16603,0,44,3355,75,125,0,,NaN,NaN,NaN,NaN,NaN,NaN,37,1,2020-11-11_16h15.44.514,Pirates_expt3,2020.1.2,Win32,60,NaN,NaN,NaN,NaN,NaN,NaN,NaN,,NaN,NaN,NaN,NaN,NaN,NaN,,NaN,NaN,NaN,NaN,NaN,NaN,"",,NaN,4,0,4,0,1,3,200,0,200,0,1,199,,NaN,200,0,200,0,1,199,,NaN,,NaN,,NaN
NaN,NaN,NaN,NaN,NaN,"",NaN,NaN,"",NaN,NaN,1,1,44,1,42,98,50,0.05,0.15,0.1,0.05,42,50,98,0.05,0.1,0.15,0,4,0,0,42,42,3397,76,0,0,0,44,3397,76,124,0,,NaN,NaN,NaN,NaN,NaN,NaN,37,1,2020-11-11_16h15.44.514,Pirates_expt3,2020.1.2,Win32,60,NaN,NaN,NaN,NaN,NaN,NaN,NaN,,NaN,NaN,NaN,NaN,NaN,NaN,,NaN,NaN,NaN,NaN,NaN,NaN,"",,NaN,4,0,4,0,1,3,200,0,200,0,1,199,,NaN,200,0,200,0,1,199,space,0.16603,,NaN,,NaN
NaN,NaN,NaN,NaN,NaN,"",NaN,NaN,"",NaN,NaN,NaN,NaN,NaN,NaN,NaN,NaN,NaN,NaN,NaN,NaN,NaN,NaN,NaN,NaN,NaN,NaN,NaN,NaN,NaN,,NaN,NaN,NaN,NaN,NaN,,NaN,NaN,NaN,NaN,NaN,NaN,NaN,,NaN,NaN,NaN,NaN,NaN,NaN,37,1,2020-11-11_16h15.44.514,Pirates_expt3,2020.1.2,Win32,60,NaN,NaN,NaN,NaN,NaN,NaN,NaN,,NaN,NaN,NaN,NaN,NaN,NaN,,NaN,NaN,NaN,NaN,NaN,NaN,"",,NaN,NaN,NaN,NaN,NaN,NaN,NaN,NaN,NaN,NaN,NaN,NaN,NaN,,NaN,2,0,2,0,1,NaN,,NaN,,NaN,,NaN
NaN,NaN,NaN,NaN,NaN,"",NaN,NaN,"",NaN,NaN,1,1,44,1,36,98,50,0.05,0.15,0.1,0.05,36,50,98,0.05,0.1,0.15,2,3,0,0,36,36,3397,76,space,0.27379,0,44,3397,76,124,0,,NaN,NaN,NaN,NaN,NaN,NaN,37,1,2020-11-11_16h15.44.514,Pirates_expt3,2020.1.2,Win32,60,NaN,NaN,NaN,NaN,NaN,NaN,NaN,,NaN,NaN,NaN,NaN,NaN,NaN,,NaN,NaN,NaN,NaN,NaN,NaN,"",,NaN,4,0,4,0,1,3,200,0,200,0,1,199,,NaN,200,0,200,0,1,199,,NaN,,NaN,,NaN
NaN,NaN,NaN,NaN,NaN,"",NaN,NaN,"",NaN,NaN,1,1,44,1,36,99,55,0.05,0.15,0.1,0.05,36,55,99,0.05,0.1,0.15,0,4,0,0,36,36,3434,77,0,0,0,44,3434,77,123,0,,NaN,NaN,NaN,NaN,NaN,NaN,37,1,2020-11-11_16h15.44.514,Pirates_expt3,2020.1.2,Win32,60,NaN,NaN,NaN,NaN,NaN,NaN,NaN,,NaN,NaN,NaN,NaN,NaN,NaN,,NaN,NaN,NaN,NaN,NaN,NaN,"",,NaN,4,0,4,0,1,3,200,0,200,0,1,199,,NaN,200,0,200,0,1,199,space,0.27379,,NaN,,NaN
NaN,NaN,NaN,NaN,NaN,"",NaN,NaN,"",NaN,NaN,NaN,NaN,NaN,NaN,NaN,NaN,NaN,NaN,NaN,NaN,NaN,NaN,NaN,NaN,NaN,NaN,NaN,NaN,NaN,,NaN,NaN,NaN,NaN,NaN,,NaN,NaN,NaN,NaN,NaN,NaN,NaN,,NaN,NaN,NaN,NaN,NaN,NaN,37,1,2020-11-11_16h15.44.514,Pirates_expt3,2020.1.2,Win32,60,NaN,NaN,NaN,NaN,NaN,NaN,NaN,,NaN,NaN,NaN,NaN,NaN,NaN,,NaN,NaN,NaN,NaN,NaN,NaN,"",,NaN,NaN,NaN,NaN,NaN,NaN,NaN,NaN,NaN,NaN,NaN,NaN,NaN,,NaN,3,0,3,0,1,NaN,,NaN,,NaN,,NaN
