consent_given,screeningQ1,screeningQ2,age,gender,startingValues,rewardVec,decay_rate,replenishRates,travel_duration,feedback_duration,blk_number,blk_type,meanRewardBlock,currentPatchPosition,patchValueLeft,patchValueTop,patchValueRight,patchReplenishLeft,patchReplenishTop,patchReplenishRight,currentPatchReplenishRate,patchValueSlow,patchValueMedium,patchValueFast,patchReplenishSlow,patchReplenishMedium,patchReplenishFast,decisionType,trialPhase,patch_selection_key,patch_selection_RT,actual_rew_gain,rew_fbk_displayed,blk_points,blk_actions,exploit_phase_key,exploit_phase_RT,num_exploit_actions,meanRewardEntireExperiment,total_points,total_actions,actions_remaining,timeInPatch_seconds_,task_instruc_resp_keys,task_instruc_resp_rt,trials_welcome_thisRepN,trials_welcome_thisTrialN,trials_welcome_thisN,trials_welcome_thisIndex,trials_welcome_ran,participant,session,date,expName,psychopyVersion,OS,frameRate,slider_response,slider_rt,trials_screening_thisRepN,trials_screening_thisTrialN,trials_screening_thisN,trials_screening_thisIndex,trials_screening_ran,demo_resp_keys,demo_resp_rt,trials_demographics_thisRepN,trials_demographics_thisTrialN,trials_demographics_thisN,trials_demographics_thisIndex,trials_demographics_ran,key_resp_keys,key_resp_rt,trials_instructions_thisRepN,trials_instructions_thisTrialN,trials_instructions_thisN,trials_instructions_thisIndex,trials_instructions_ran,rewardVectorToManipulate,blk_instruc_resp_keys,blk_instruc_resp_rt,blk_loop_thisRepN,blk_loop_thisTrialN,blk_loop_thisN,blk_loop_thisIndex,blk_loop_ran,blk_loop_order,trials_thisRepN,trials_thisTrialN,trials_thisN,trials_thisIndex,trials_ran,trials_order,sel_resp_keys,sel_resp_rt,exploit_loop_thisRepN,exploit_loop_thisTrialN,exploit_loop_thisN,exploit_loop_thisIndex,exploit_loop_ran,exploit_loop_order,exploit_resp_keys,exploit_resp_rt,post_blk_resp_keys,post_blk_resp_rt,closing_resp_keys,closing_resp_rt
0,0,0,0,0,"0",0,0,"0",0,0,0,0,0,0,0,0,0,0,0,0,0,0,0,0,0,0,0,0,0,0,0,0,0,0,0,0,0,0,0,NaN,NaN,NaN,0,space,2.185,0,0,0,0,1,43,1,2020-11-11_15h06.58.229,Pirates_expt3,2020.1.2,Win32,60,NaN,NaN,NaN,NaN,NaN,NaN,NaN,,NaN,NaN,NaN,NaN,NaN,NaN,,NaN,NaN,NaN,NaN,NaN,NaN,"",,NaN,NaN,NaN,NaN,NaN,NaN,NaN,NaN,NaN,NaN,NaN,NaN,NaN,,NaN,NaN,NaN,NaN,NaN,NaN,NaN,,NaN,,NaN,,NaN
NaN,NaN,NaN,NaN,NaN,"",NaN,NaN,"",NaN,NaN,NaN,NaN,NaN,NaN,NaN,NaN,NaN,NaN,NaN,NaN,NaN,NaN,NaN,NaN,NaN,NaN,NaN,NaN,NaN,,NaN,NaN,NaN,NaN,NaN,,NaN,NaN,NaN,NaN,NaN,NaN,NaN,space,0.475,1,0,1,0,1,43,1,2020-11-11_15h06.58.229,Pirates_expt3,2020.1.2,Win32,60,NaN,NaN,NaN,NaN,NaN,NaN,NaN,,NaN,NaN,NaN,NaN,NaN,NaN,,NaN,NaN,NaN,NaN,NaN,NaN,"",,NaN,NaN,NaN,NaN,NaN,NaN,NaN,NaN,NaN,NaN,NaN,NaN,NaN,,NaN,NaN,NaN,NaN,NaN,NaN,NaN,,NaN,,NaN,,NaN
NaN,NaN,NaN,NaN,NaN,"",NaN,NaN,"",NaN,NaN,NaN,NaN,NaN,NaN,NaN,NaN,NaN,NaN,NaN,NaN,NaN,NaN,NaN,NaN,NaN,NaN,NaN,NaN,NaN,,NaN,NaN,NaN,NaN,NaN,,NaN,NaN,NaN,NaN,NaN,NaN,NaN,space,1.335,2,0,2,0,1,43,1,2020-11-11_15h06.58.229,Pirates_expt3,2020.1.2,Win32,60,NaN,NaN,NaN,NaN,NaN,NaN,NaN,,NaN,NaN,NaN,NaN,NaN,NaN,,NaN,NaN,NaN,NaN,NaN,NaN,"",,NaN,NaN,NaN,NaN,NaN,NaN,NaN,NaN,NaN,NaN,NaN,NaN,NaN,,NaN,NaN,NaN,NaN,NaN,NaN,NaN,,NaN,,NaN,,NaN
NaN,NaN,NaN,NaN,NaN,"",NaN,NaN,"",NaN,NaN,NaN,NaN,NaN,NaN,NaN,NaN,NaN,NaN,NaN,NaN,NaN,NaN,NaN,NaN,NaN,NaN,NaN,NaN,NaN,,NaN,NaN,NaN,NaN,NaN,,NaN,NaN,NaN,NaN,NaN,NaN,NaN,space,0.605,3,0,3,0,1,43,1,2020-11-11_15h06.58.229,Pirates_expt3,2020.1.2,Win32,60,NaN,NaN,NaN,NaN,NaN,NaN,NaN,,NaN,NaN,NaN,NaN,NaN,NaN,,NaN,NaN,NaN,NaN,NaN,NaN,"",,NaN,NaN,NaN,NaN,NaN,NaN,NaN,NaN,NaN,NaN,NaN,NaN,NaN,,NaN,NaN,NaN,NaN,NaN,NaN,NaN,,NaN,,NaN,,NaN
NaN,NaN,NaN,NaN,NaN,"",NaN,NaN,"",NaN,NaN,NaN,NaN,NaN,NaN,NaN,NaN,NaN,NaN,NaN,NaN,NaN,NaN,NaN,NaN,NaN,NaN,NaN,NaN,NaN,,NaN,NaN,NaN,NaN,NaN,,NaN,NaN,NaN,NaN,NaN,NaN,NaN,space,0.9,4,0,4,0,1,43,1,2020-11-11_15h06.58.229,Pirates_expt3,2020.1.2,Win32,60,NaN,NaN,NaN,NaN,NaN,NaN,NaN,,NaN,NaN,NaN,NaN,NaN,NaN,,NaN,NaN,NaN,NaN,NaN,NaN,"",,NaN,NaN,NaN,NaN,NaN,NaN,NaN,NaN,NaN,NaN,NaN,NaN,NaN,,NaN,NaN,NaN,NaN,NaN,NaN,NaN,,NaN,,NaN,,NaN
NaN,NaN,NaN,NaN,NaN,"",NaN,NaN,"",NaN,NaN,NaN,NaN,NaN,NaN,NaN,NaN,NaN,NaN,NaN,NaN,NaN,NaN,NaN,NaN,NaN,NaN,NaN,NaN,NaN,,NaN,NaN,NaN,NaN,NaN,,NaN,NaN,NaN,NaN,NaN,NaN,NaN,space,0.61,5,0,5,0,1,43,1,2020-11-11_15h06.58.229,Pirates_expt3,2020.1.2,Win32,60,NaN,NaN,NaN,NaN,NaN,NaN,NaN,,NaN,NaN,NaN,NaN,NaN,NaN,,NaN,NaN,NaN,NaN,NaN,NaN,"",,NaN,NaN,NaN,NaN,NaN,NaN,NaN,NaN,NaN,NaN,NaN,NaN,NaN,,NaN,NaN,NaN,NaN,NaN,NaN,NaN,,NaN,,NaN,,NaN
1,0,NaN,NaN,NaN,"",NaN,NaN,"",NaN,NaN,NaN,NaN,NaN,NaN,NaN,NaN,NaN,NaN,NaN,NaN,NaN,NaN,NaN,NaN,NaN,NaN,NaN,NaN,NaN,,NaN,NaN,NaN,NaN,NaN,,NaN,NaN,NaN,NaN,NaN,NaN,NaN,,NaN,NaN,NaN,NaN,NaN,NaN,43,1,2020-11-11_15h06.58.229,Pirates_expt3,2020.1.2,Win32,60,1,1.895,0,0,0,0,1,,NaN,NaN,NaN,NaN,NaN,NaN,,NaN,NaN,NaN,NaN,NaN,NaN,"",,NaN,NaN,NaN,NaN,NaN,NaN,NaN,NaN,NaN,NaN,NaN,NaN,NaN,,NaN,NaN,NaN,NaN,NaN,NaN,NaN,,NaN,,NaN,,NaN
NaN,NaN,1,NaN,NaN,"",NaN,NaN,"",NaN,NaN,NaN,NaN,NaN,NaN,NaN,NaN,NaN,NaN,NaN,NaN,NaN,NaN,NaN,NaN,NaN,NaN,NaN,NaN,NaN,,NaN,NaN,NaN,NaN,NaN,,NaN,NaN,NaN,NaN,NaN,NaN,NaN,,NaN,NaN,NaN,NaN,NaN,NaN,43,1,2020-11-11_15h06.58.229,Pirates_expt3,2020.1.2,Win32,60,3,1.68,1,0,1,0,1,,NaN,NaN,NaN,NaN,NaN,NaN,,NaN,NaN,NaN,NaN,NaN,NaN,"",,NaN,NaN,NaN,NaN,NaN,NaN,NaN,NaN,NaN,NaN,NaN,NaN,NaN,,NaN,NaN,NaN,NaN,NaN,NaN,NaN,,NaN,,NaN,,NaN
NaN,NaN,NaN,35,NaN,"",NaN,NaN,"",NaN,NaN,NaN,NaN,NaN,NaN,NaN,NaN,NaN,NaN,NaN,NaN,NaN,NaN,NaN,NaN,NaN,NaN,NaN,NaN,NaN,,NaN,NaN,NaN,NaN,NaN,,NaN,NaN,NaN,NaN,NaN,NaN,NaN,,NaN,NaN,NaN,NaN,NaN,NaN,43,1,2020-11-11_15h06.58.229,Pirates_expt3,2020.1.2,Win32,60,NaN,NaN,NaN,NaN,NaN,NaN,NaN,return,18.565,0,0,0,0,1,,NaN,NaN,NaN,NaN,NaN,NaN,"",,NaN,NaN,NaN,NaN,NaN,NaN,NaN,NaN,NaN,NaN,NaN,NaN,NaN,,NaN,NaN,NaN,NaN,NaN,NaN,NaN,,NaN,,NaN,,NaN
NaN,NaN,NaN,NaN,0,"",NaN,NaN,"",NaN,NaN,NaN,NaN,NaN,NaN,NaN,NaN,NaN,NaN,NaN,NaN,NaN,NaN,NaN,NaN,NaN,NaN,NaN,NaN,NaN,,NaN,NaN,NaN,NaN,NaN,,NaN,NaN,NaN,NaN,NaN,NaN,NaN,,NaN,NaN,NaN,NaN,NaN,NaN,43,1,2020-11-11_15h06.58.229,Pirates_expt3,2020.1.2,Win32,60,NaN,NaN,NaN,NaN,NaN,NaN,NaN,return,6.425,1,0,1,0,1,,NaN,NaN,NaN,NaN,NaN,NaN,"",,NaN,NaN,NaN,NaN,NaN,NaN,NaN,NaN,NaN,NaN,NaN,NaN,NaN,,NaN,NaN,NaN,NaN,NaN,NaN,NaN,,NaN,,NaN,,NaN
NaN,NaN,NaN,NaN,NaN,"",NaN,NaN,"",NaN,NaN,NaN,NaN,NaN,NaN,NaN,NaN,NaN,NaN,NaN,NaN,NaN,NaN,NaN,NaN,NaN,NaN,NaN,NaN,NaN,,NaN,NaN,NaN,NaN,NaN,,NaN,NaN,NaN,NaN,NaN,NaN,NaN,,NaN,NaN,NaN,NaN,NaN,NaN,43,1,2020-11-11_15h06.58.229,Pirates_expt3,2020.1.2,Win32,60,NaN,NaN,NaN,NaN,NaN,NaN,NaN,,NaN,NaN,NaN,NaN,NaN,NaN,space,48.9,0,0,0,0,1,"",,NaN,NaN,NaN,NaN,NaN,NaN,NaN,NaN,NaN,NaN,NaN,NaN,NaN,,NaN,NaN,NaN,NaN,NaN,NaN,NaN,,NaN,,NaN,,NaN
NaN,NaN,NaN,NaN,NaN,"",NaN,NaN,"",NaN,NaN,NaN,NaN,NaN,NaN,NaN,NaN,NaN,NaN,NaN,NaN,NaN,NaN,NaN,NaN,NaN,NaN,NaN,NaN,NaN,,NaN,NaN,NaN,NaN,NaN,,NaN,NaN,NaN,NaN,NaN,NaN,NaN,,NaN,NaN,NaN,NaN,NaN,NaN,43,1,2020-11-11_15h06.58.229,Pirates_expt3,2020.1.2,Win32,60,NaN,NaN,NaN,NaN,NaN,NaN,NaN,,NaN,NaN,NaN,NaN,NaN,NaN,space,3.11,1,0,1,0,1,"",,NaN,NaN,NaN,NaN,NaN,NaN,NaN,NaN,NaN,NaN,NaN,NaN,NaN,,NaN,NaN,NaN,NaN,NaN,NaN,NaN,,NaN,,NaN,,NaN
NaN,NaN,NaN,NaN,NaN,"",NaN,NaN,"",NaN,NaN,NaN,NaN,NaN,NaN,NaN,NaN,NaN,NaN,NaN,NaN,NaN,NaN,NaN,NaN,NaN,NaN,NaN,NaN,NaN,,NaN,NaN,NaN,NaN,NaN,,NaN,NaN,NaN,NaN,NaN,NaN,NaN,,NaN,NaN,NaN,NaN,NaN,NaN,43,1,2020-11-11_15h06.58.229,Pirates_expt3,2020.1.2,Win32,60,NaN,NaN,NaN,NaN,NaN,NaN,NaN,,NaN,NaN,NaN,NaN,NaN,NaN,space,17.3,2,0,2,0,1,"",,NaN,NaN,NaN,NaN,NaN,NaN,NaN,NaN,NaN,NaN,NaN,NaN,NaN,,NaN,NaN,NaN,NaN,NaN,NaN,NaN,,NaN,,NaN,,NaN
NaN,NaN,NaN,NaN,NaN,"",NaN,NaN,"",NaN,NaN,NaN,NaN,NaN,NaN,NaN,NaN,NaN,NaN,NaN,NaN,NaN,NaN,NaN,NaN,NaN,NaN,NaN,NaN,NaN,,NaN,NaN,NaN,NaN,NaN,,NaN,NaN,NaN,NaN,NaN,NaN,NaN,,NaN,NaN,NaN,NaN,NaN,NaN,43,1,2020-11-11_15h06.58.229,Pirates_expt3,2020.1.2,Win32,60,NaN,NaN,NaN,NaN,NaN,NaN,NaN,,NaN,NaN,NaN,NaN,NaN,NaN,space,1.72,3,0,3,0,1,"",,NaN,NaN,NaN,NaN,NaN,NaN,NaN,NaN,NaN,NaN,NaN,NaN,NaN,,NaN,NaN,NaN,NaN,NaN,NaN,NaN,,NaN,,NaN,,NaN
NaN,NaN,NaN,NaN,NaN,"",NaN,NaN,"",NaN,NaN,NaN,NaN,NaN,NaN,NaN,NaN,NaN,NaN,NaN,NaN,NaN,NaN,NaN,NaN,NaN,NaN,NaN,NaN,NaN,,NaN,NaN,NaN,NaN,NaN,,NaN,NaN,NaN,NaN,NaN,NaN,NaN,,NaN,NaN,NaN,NaN,NaN,NaN,43,1,2020-11-11_15h06.58.229,Pirates_expt3,2020.1.2,Win32,60,NaN,NaN,NaN,NaN,NaN,NaN,NaN,,NaN,NaN,NaN,NaN,NaN,NaN,space,1.845,4,0,4,0,1,"",,NaN,NaN,NaN,NaN,NaN,NaN,NaN,NaN,NaN,NaN,NaN,NaN,NaN,,NaN,NaN,NaN,NaN,NaN,NaN,NaN,,NaN,,NaN,,NaN
NaN,NaN,NaN,NaN,NaN,"",NaN,NaN,"",NaN,NaN,NaN,NaN,NaN,NaN,NaN,NaN,NaN,NaN,NaN,NaN,NaN,NaN,NaN,NaN,NaN,NaN,NaN,NaN,NaN,,NaN,NaN,NaN,NaN,NaN,,NaN,NaN,NaN,NaN,NaN,NaN,NaN,,NaN,NaN,NaN,NaN,NaN,NaN,43,1,2020-11-11_15h06.58.229,Pirates_expt3,2020.1.2,Win32,60,NaN,NaN,NaN,NaN,NaN,NaN,NaN,,NaN,NaN,NaN,NaN,NaN,NaN,space,0.66,5,0,5,0,1,"",,NaN,NaN,NaN,NaN,NaN,NaN,NaN,NaN,NaN,NaN,NaN,NaN,NaN,,NaN,NaN,NaN,NaN,NaN,NaN,NaN,,NaN,,NaN,,NaN
NaN,NaN,NaN,NaN,NaN,"",NaN,NaN,"",NaN,NaN,NaN,NaN,NaN,NaN,NaN,NaN,NaN,NaN,NaN,NaN,NaN,NaN,NaN,NaN,NaN,NaN,NaN,NaN,NaN,,NaN,NaN,NaN,NaN,NaN,,NaN,NaN,NaN,NaN,NaN,NaN,NaN,,NaN,NaN,NaN,NaN,NaN,NaN,43,1,2020-11-11_15h06.58.229,Pirates_expt3,2020.1.2,Win32,60,NaN,NaN,NaN,NaN,NaN,NaN,NaN,,NaN,NaN,NaN,NaN,NaN,NaN,space,5.79,6,0,6,0,1,"",,NaN,NaN,NaN,NaN,NaN,NaN,NaN,NaN,NaN,NaN,NaN,NaN,NaN,,NaN,NaN,NaN,NaN,NaN,NaN,NaN,,NaN,,NaN,,NaN
NaN,NaN,NaN,NaN,NaN,"",NaN,NaN,"",NaN,NaN,NaN,NaN,NaN,NaN,NaN,NaN,NaN,NaN,NaN,NaN,NaN,NaN,NaN,NaN,NaN,NaN,NaN,NaN,NaN,,NaN,NaN,NaN,NaN,NaN,,NaN,NaN,NaN,NaN,NaN,NaN,NaN,,NaN,NaN,NaN,NaN,NaN,NaN,43,1,2020-11-11_15h06.58.229,Pirates_expt3,2020.1.2,Win32,60,NaN,NaN,NaN,NaN,NaN,NaN,NaN,,NaN,NaN,NaN,NaN,NaN,NaN,space,3.205,7,0,7,0,1,"",,NaN,NaN,NaN,NaN,NaN,NaN,NaN,NaN,NaN,NaN,NaN,NaN,NaN,,NaN,NaN,NaN,NaN,NaN,NaN,NaN,,NaN,,NaN,,NaN
NaN,NaN,NaN,NaN,NaN,"",NaN,NaN,"",NaN,NaN,NaN,NaN,NaN,NaN,NaN,NaN,NaN,NaN,NaN,NaN,NaN,NaN,NaN,NaN,NaN,NaN,NaN,NaN,NaN,,NaN,NaN,NaN,NaN,NaN,,NaN,NaN,NaN,NaN,NaN,NaN,NaN,,NaN,NaN,NaN,NaN,NaN,NaN,43,1,2020-11-11_15h06.58.229,Pirates_expt3,2020.1.2,Win32,60,NaN,NaN,NaN,NaN,NaN,NaN,NaN,,NaN,NaN,NaN,NaN,NaN,NaN,space,0.97,8,0,8,0,1,"",,NaN,NaN,NaN,NaN,NaN,NaN,NaN,NaN,NaN,NaN,NaN,NaN,NaN,,NaN,NaN,NaN,NaN,NaN,NaN,NaN,,NaN,,NaN,,NaN
NaN,NaN,NaN,NaN,NaN,"",NaN,NaN,"",NaN,NaN,NaN,NaN,NaN,NaN,NaN,NaN,NaN,NaN,NaN,NaN,NaN,NaN,NaN,NaN,NaN,NaN,NaN,NaN,NaN,,NaN,NaN,NaN,NaN,NaN,,NaN,NaN,NaN,NaN,NaN,NaN,NaN,,NaN,NaN,NaN,NaN,NaN,NaN,43,1,2020-11-11_15h06.58.229,Pirates_expt3,2020.1.2,Win32,60,NaN,NaN,NaN,NaN,NaN,NaN,NaN,,NaN,NaN,NaN,NaN,NaN,NaN,space,4.08,9,0,9,0,1,"",,NaN,NaN,NaN,NaN,NaN,NaN,NaN,NaN,NaN,NaN,NaN,NaN,NaN,,NaN,NaN,NaN,NaN,NaN,NaN,NaN,,NaN,,NaN,,NaN
NaN,NaN,NaN,NaN,NaN,"[100,100,100]",NaN,0.05,"[0.05,0.1,0.15]",1,1.5,1,1,0,2,79,76,74,0.05,0.1,0.15,0.1,79,76,74,0.05,0.1,0.15,1,1,j,5.76,0,0,0,1,N/A,0,0,0,0,1,199,0,,NaN,NaN,NaN,NaN,NaN,NaN,43,1,2020-11-11_15h06.58.229,Pirates_expt3,2020.1.2,Win32,60,NaN,NaN,NaN,NaN,NaN,NaN,NaN,,NaN,NaN,NaN,NaN,NaN,NaN,,NaN,NaN,NaN,NaN,NaN,NaN,"[79,76,74]",return,12.985,4,0,4,0,1,3,200,0,200,0,1,199,,NaN,NaN,NaN,NaN,NaN,NaN,NaN,,NaN,,NaN,,NaN
NaN,NaN,NaN,NaN,NaN,"",NaN,NaN,"",NaN,NaN,1,1,0,2,80,78,77,0.05,0.1,0.15,0.1,80,78,77,0.05,0.1,0.15,0,2,0,0,0,0,0,1,N/A,0,0,0,0,1,199,0,,NaN,NaN,NaN,NaN,NaN,NaN,43,1,2020-11-11_15h06.58.229,Pirates_expt3,2020.1.2,Win32,60,NaN,NaN,NaN,NaN,NaN,NaN,NaN,,NaN,NaN,NaN,NaN,NaN,NaN,,NaN,NaN,NaN,NaN,NaN,NaN,"",,NaN,4,0,4,0,1,3,200,0,200,0,1,199,j,5.76,NaN,NaN,NaN,NaN,NaN,NaN,,NaN,,NaN,,NaN
NaN,NaN,NaN,NaN,NaN,"",NaN,NaN,"",NaN,NaN,1,1,0,2,80,78,77,0.05,0.1,0.15,0.1,80,78,77,0.05,0.1,0.15,2,3,0,0,78,78,0,1,space,2.93,0,0,0,1,199,0,,NaN,NaN,NaN,NaN,NaN,NaN,43,1,2020-11-11_15h06.58.229,Pirates_expt3,2020.1.2,Win32,60,NaN,NaN,NaN,NaN,NaN,NaN,NaN,,NaN,NaN,NaN,NaN,NaN,NaN,,NaN,NaN,NaN,NaN,NaN,NaN,"",,NaN,4,0,4,0,1,3,200,0,200,0,1,199,,NaN,200,0,200,0,1,199,,NaN,,NaN,,NaN
NaN,NaN,NaN,NaN,NaN,"",NaN,NaN,"",NaN,NaN,1,1,39,2,81,78,81,0.05,0.1,0.15,0.1,81,78,81,0.05,0.1,0.15,0,4,0,0,78,78,78,2,0,0,0,39,78,2,198,0,,NaN,NaN,NaN,NaN,NaN,NaN,43,1,2020-11-11_15h06.58.229,Pirates_expt3,2020.1.2,Win32,60,NaN,NaN,NaN,NaN,NaN,NaN,NaN,,NaN,NaN,NaN,NaN,NaN,NaN,,NaN,NaN,NaN,NaN,NaN,NaN,"",,NaN,4,0,4,0,1,3,200,0,200,0,1,199,,NaN,200,0,200,0,1,199,space,2.93,,NaN,,NaN
NaN,NaN,NaN,NaN,NaN,"",NaN,NaN,"",NaN,NaN,NaN,NaN,NaN,NaN,NaN,NaN,NaN,NaN,NaN,NaN,NaN,NaN,NaN,NaN,NaN,NaN,NaN,NaN,NaN,,NaN,NaN,NaN,NaN,NaN,,NaN,NaN,NaN,NaN,NaN,NaN,NaN,,NaN,NaN,NaN,NaN,NaN,NaN,43,1,2020-11-11_15h06.58.229,Pirates_expt3,2020.1.2,Win32,60,NaN,NaN,NaN,NaN,NaN,NaN,NaN,,NaN,NaN,NaN,NaN,NaN,NaN,,NaN,NaN,NaN,NaN,NaN,NaN,"",,NaN,NaN,NaN,NaN,NaN,NaN,NaN,NaN,NaN,NaN,NaN,NaN,NaN,,NaN,0,0,0,0,1,NaN,,NaN,,NaN,,NaN
NaN,NaN,NaN,NaN,NaN,"",NaN,NaN,"",NaN,NaN,1,1,39,2,81,74,81,0.05,0.1,0.15,0.1,81,74,81,0.05,0.1,0.15,2,3,0,0,74,74,78,2,space,0.125,0,39,78,2,198,0,,NaN,NaN,NaN,NaN,NaN,NaN,43,1,2020-11-11_15h06.58.229,Pirates_expt3,2020.1.2,Win32,60,NaN,NaN,NaN,NaN,NaN,NaN,NaN,,NaN,NaN,NaN,NaN,NaN,NaN,,NaN,NaN,NaN,NaN,NaN,NaN,"",,NaN,4,0,4,0,1,3,200,0,200,0,1,199,,NaN,200,0,200,0,1,199,,NaN,,NaN,,NaN
NaN,NaN,NaN,NaN,NaN,"",NaN,NaN,"",NaN,NaN,1,1,50,2,81,74,84,0.05,0.1,0.15,0.1,81,74,84,0.05,0.1,0.15,0,4,0,0,74,74,152,3,0,0,0,50,152,3,197,0,,NaN,NaN,NaN,NaN,NaN,NaN,43,1,2020-11-11_15h06.58.229,Pirates_expt3,2020.1.2,Win32,60,NaN,NaN,NaN,NaN,NaN,NaN,NaN,,NaN,NaN,NaN,NaN,NaN,NaN,,NaN,NaN,NaN,NaN,NaN,NaN,"",,NaN,4,0,4,0,1,3,200,0,200,0,1,199,,NaN,200,0,200,0,1,199,space,0.125,,NaN,,NaN
NaN,NaN,NaN,NaN,NaN,"",NaN,NaN,"",NaN,NaN,NaN,NaN,NaN,NaN,NaN,NaN,NaN,NaN,NaN,NaN,NaN,NaN,NaN,NaN,NaN,NaN,NaN,NaN,NaN,,NaN,NaN,NaN,NaN,NaN,,NaN,NaN,NaN,NaN,NaN,NaN,NaN,,NaN,NaN,NaN,NaN,NaN,NaN,43,1,2020-11-11_15h06.58.229,Pirates_expt3,2020.1.2,Win32,60,NaN,NaN,NaN,NaN,NaN,NaN,NaN,,NaN,NaN,NaN,NaN,NaN,NaN,,NaN,NaN,NaN,NaN,NaN,NaN,"",,NaN,NaN,NaN,NaN,NaN,NaN,NaN,NaN,NaN,NaN,NaN,NaN,NaN,,NaN,1,0,1,0,1,NaN,,NaN,,NaN,,NaN
NaN,NaN,NaN,NaN,NaN,"",NaN,NaN,"",NaN,NaN,1,1,50,2,81,67,84,0.05,0.1,0.15,0.1,81,67,84,0.05,0.1,0.15,2,3,0,0,67,67,152,3,space,0.02,0,50,152,3,197,0,,NaN,NaN,NaN,NaN,NaN,NaN,43,1,2020-11-11_15h06.58.229,Pirates_expt3,2020.1.2,Win32,60,NaN,NaN,NaN,NaN,NaN,NaN,NaN,,NaN,NaN,NaN,NaN,NaN,NaN,,NaN,NaN,NaN,NaN,NaN,NaN,"",,NaN,4,0,4,0,1,3,200,0,200,0,1,199,,NaN,200,0,200,0,1,199,,NaN,,NaN,,NaN
NaN,NaN,NaN,NaN,NaN,"",NaN,NaN,"",NaN,NaN,1,1,55,2,82,67,86,0.05,0.1,0.15,0.1,82,67,86,0.05,0.1,0.15,0,4,0,0,67,67,220,4,0,0,0,55,220,4,196,0,,NaN,NaN,NaN,NaN,NaN,NaN,43,1,2020-11-11_15h06.58.229,Pirates_expt3,2020.1.2,Win32,60,NaN,NaN,NaN,NaN,NaN,NaN,NaN,,NaN,NaN,NaN,NaN,NaN,NaN,,NaN,NaN,NaN,NaN,NaN,NaN,"",,NaN,4,0,4,0,1,3,200,0,200,0,1,199,,NaN,200,0,200,0,1,199,space,0.02,,NaN,,NaN
NaN,NaN,NaN,NaN,NaN,"",NaN,NaN,"",NaN,NaN,NaN,NaN,NaN,NaN,NaN,NaN,NaN,NaN,NaN,NaN,NaN,NaN,NaN,NaN,NaN,NaN,NaN,NaN,NaN,,NaN,NaN,NaN,NaN,NaN,,NaN,NaN,NaN,NaN,NaN,NaN,NaN,,NaN,NaN,NaN,NaN,NaN,NaN,43,1,2020-11-11_15h06.58.229,Pirates_expt3,2020.1.2,Win32,60,NaN,NaN,NaN,NaN,NaN,NaN,NaN,,NaN,NaN,NaN,NaN,NaN,NaN,,NaN,NaN,NaN,NaN,NaN,NaN,"",,NaN,NaN,NaN,NaN,NaN,NaN,NaN,NaN,NaN,NaN,NaN,NaN,NaN,,NaN,2,0,2,0,1,NaN,,NaN,,NaN,,NaN
NaN,NaN,NaN,NaN,NaN,"",NaN,NaN,"",NaN,NaN,1,1,55,2,82,57,86,0.05,0.1,0.15,0.1,82,57,86,0.05,0.1,0.15,2,3,0,0,57,57,220,4,space,1.305,0,55,220,4,196,0,,NaN,NaN,NaN,NaN,NaN,NaN,43,1,2020-11-11_15h06.58.229,Pirates_expt3,2020.1.2,Win32,60,NaN,NaN,NaN,NaN,NaN,NaN,NaN,,NaN,NaN,NaN,NaN,NaN,NaN,,NaN,NaN,NaN,NaN,NaN,NaN,"",,NaN,4,0,4,0,1,3,200,0,200,0,1,199,,NaN,200,0,200,0,1,199,,NaN,,NaN,,NaN
NaN,NaN,NaN,NaN,NaN,"",NaN,NaN,"",NaN,NaN,1,1,55,2,83,57,88,0.05,0.1,0.15,0.1,83,57,88,0.05,0.1,0.15,0,4,0,0,57,57,277,5,0,0,0,55,277,5,195,0,,NaN,NaN,NaN,NaN,NaN,NaN,43,1,2020-11-11_15h06.58.229,Pirates_expt3,2020.1.2,Win32,60,NaN,NaN,NaN,NaN,NaN,NaN,NaN,,NaN,NaN,NaN,NaN,NaN,NaN,,NaN,NaN,NaN,NaN,NaN,NaN,"",,NaN,4,0,4,0,1,3,200,0,200,0,1,199,,NaN,200,0,200,0,1,199,space,1.305,,NaN,,NaN
NaN,NaN,NaN,NaN,NaN,"",NaN,NaN,"",NaN,NaN,NaN,NaN,NaN,NaN,NaN,NaN,NaN,NaN,NaN,NaN,NaN,NaN,NaN,NaN,NaN,NaN,NaN,NaN,NaN,,NaN,NaN,NaN,NaN,NaN,,NaN,NaN,NaN,NaN,NaN,NaN,NaN,,NaN,NaN,NaN,NaN,NaN,NaN,43,1,2020-11-11_15h06.58.229,Pirates_expt3,2020.1.2,Win32,60,NaN,NaN,NaN,NaN,NaN,NaN,NaN,,NaN,NaN,NaN,NaN,NaN,NaN,,NaN,NaN,NaN,NaN,NaN,NaN,"",,NaN,NaN,NaN,NaN,NaN,NaN,NaN,NaN,NaN,NaN,NaN,NaN,NaN,,NaN,3,0,3,0,1,NaN,,NaN,,NaN,,NaN
NaN,NaN,NaN,NaN,NaN,"",NaN,NaN,"",NaN,NaN,1,1,55,2,83,46,88,0.05,0.1,0.15,0.1,83,46,88,0.05,0.1,0.15,2,3,0,0,46,46,277,5,space,3.085,0,55,277,5,195,0,,NaN,NaN,NaN,NaN,NaN,NaN,43,1,2020-11-11_15h06.58.229,Pirates_expt3,2020.1.2,Win32,60,NaN,NaN,NaN,NaN,NaN,NaN,NaN,,NaN,NaN,NaN,NaN,NaN,NaN,,NaN,NaN,NaN,NaN,NaN,NaN,"",,NaN,4,0,4,0,1,3,200,0,200,0,1,199,,NaN,200,0,200,0,1,199,,NaN,,NaN,,NaN
NaN,NaN,NaN,NaN,NaN,"",NaN,NaN,"",NaN,NaN,1,1,54,2,84,46,90,0.05,0.1,0.15,0.1,84,46,90,0.05,0.1,0.15,0,4,0,0,46,46,324,6,0,0,0,54,324,6,194,0,,NaN,NaN,NaN,NaN,NaN,NaN,43,1,2020-11-11_15h06.58.229,Pirates_expt3,2020.1.2,Win32,60,NaN,NaN,NaN,NaN,NaN,NaN,NaN,,NaN,NaN,NaN,NaN,NaN,NaN,,NaN,NaN,NaN,NaN,NaN,NaN,"",,NaN,4,0,4,0,1,3,200,0,200,0,1,199,,NaN,200,0,200,0,1,199,space,3.085,,NaN,,NaN
NaN,NaN,NaN,NaN,NaN,"",NaN,NaN,"",NaN,NaN,NaN,NaN,NaN,NaN,NaN,NaN,NaN,NaN,NaN,NaN,NaN,NaN,NaN,NaN,NaN,NaN,NaN,NaN,NaN,,NaN,NaN,NaN,NaN,NaN,,NaN,NaN,NaN,NaN,NaN,NaN,NaN,,NaN,NaN,NaN,NaN,NaN,NaN,43,1,2020-11-11_15h06.58.229,Pirates_expt3,2020.1.2,Win32,60,NaN,NaN,NaN,NaN,NaN,NaN,NaN,,NaN,NaN,NaN,NaN,NaN,NaN,,NaN,NaN,NaN,NaN,NaN,NaN,"",,NaN,NaN,NaN,NaN,NaN,NaN,NaN,NaN,NaN,NaN,NaN,NaN,NaN,,NaN,4,0,4,0,1,NaN,,NaN,,NaN,,NaN
NaN,NaN,NaN,NaN,NaN,"",NaN,NaN,"",NaN,NaN,1,1,54,2,84,36,90,0.05,0.1,0.15,0.1,84,36,90,0.05,0.1,0.15,2,3,0,0,36,36,324,6,space,1.135,0,54,324,6,194,0,,NaN,NaN,NaN,NaN,NaN,NaN,43,1,2020-11-11_15h06.58.229,Pirates_expt3,2020.1.2,Win32,60,NaN,NaN,NaN,NaN,NaN,NaN,NaN,,NaN,NaN,NaN,NaN,NaN,NaN,,NaN,NaN,NaN,NaN,NaN,NaN,"",,NaN,4,0,4,0,1,3,200,0,200,0,1,199,,NaN,200,0,200,0,1,199,,NaN,,NaN,,NaN
NaN,NaN,NaN,NaN,NaN,"",NaN,NaN,"",NaN,NaN,1,1,51,2,85,36,91,0.05,0.1,0.15,0.1,85,36,91,0.05,0.1,0.15,0,4,0,0,36,36,360,7,0,0,0,51,360,7,193,0,,NaN,NaN,NaN,NaN,NaN,NaN,43,1,2020-11-11_15h06.58.229,Pirates_expt3,2020.1.2,Win32,60,NaN,NaN,NaN,NaN,NaN,NaN,NaN,,NaN,NaN,NaN,NaN,NaN,NaN,,NaN,NaN,NaN,NaN,NaN,NaN,"",,NaN,4,0,4,0,1,3,200,0,200,0,1,199,,NaN,200,0,200,0,1,199,space,1.135,,NaN,,NaN
NaN,NaN,NaN,NaN,NaN,"",NaN,NaN,"",NaN,NaN,NaN,NaN,NaN,NaN,NaN,NaN,NaN,NaN,NaN,NaN,NaN,NaN,NaN,NaN,NaN,NaN,NaN,NaN,NaN,,NaN,NaN,NaN,NaN,NaN,,NaN,NaN,NaN,NaN,NaN,NaN,NaN,,NaN,NaN,NaN,NaN,NaN,NaN,43,1,2020-11-11_15h06.58.229,Pirates_expt3,2020.1.2,Win32,60,NaN,NaN,NaN,NaN,NaN,NaN,NaN,,NaN,NaN,NaN,NaN,NaN,NaN,,NaN,NaN,NaN,NaN,NaN,NaN,"",,NaN,NaN,NaN,NaN,NaN,NaN,NaN,NaN,NaN,NaN,NaN,NaN,NaN,,NaN,5,0,5,0,1,NaN,,NaN,,NaN,,NaN
NaN,NaN,NaN,NaN,NaN,"",NaN,NaN,"",NaN,NaN,1,1,51,2,85,26,91,0.05,0.1,0.15,0.1,85,26,91,0.05,0.1,0.15,2,3,0,0,26,26,360,7,space,0.24,0,51,360,7,193,0,,NaN,NaN,NaN,NaN,NaN,NaN,43,1,2020-11-11_15h06.58.229,Pirates_expt3,2020.1.2,Win32,60,NaN,NaN,NaN,NaN,NaN,NaN,NaN,,NaN,NaN,NaN,NaN,NaN,NaN,,NaN,NaN,NaN,NaN,NaN,NaN,"",,NaN,4,0,4,0,1,3,200,0,200,0,1,199,,NaN,200,0,200,0,1,199,,NaN,,NaN,,NaN
NaN,NaN,NaN,NaN,NaN,"",NaN,NaN,"",NaN,NaN,1,1,48,2,86,26,92,0.05,0.1,0.15,0.1,86,26,92,0.05,0.1,0.15,0,4,0,0,26,26,387,8,0,0,0,48,387,8,192,0,,NaN,NaN,NaN,NaN,NaN,NaN,43,1,2020-11-11_15h06.58.229,Pirates_expt3,2020.1.2,Win32,60,NaN,NaN,NaN,NaN,NaN,NaN,NaN,,NaN,NaN,NaN,NaN,NaN,NaN,,NaN,NaN,NaN,NaN,NaN,NaN,"",,NaN,4,0,4,0,1,3,200,0,200,0,1,199,,NaN,200,0,200,0,1,199,space,0.24,,NaN,,NaN
NaN,NaN,NaN,NaN,NaN,"",NaN,NaN,"",NaN,NaN,NaN,NaN,NaN,NaN,NaN,NaN,NaN,NaN,NaN,NaN,NaN,NaN,NaN,NaN,NaN,NaN,NaN,NaN,NaN,,NaN,NaN,NaN,NaN,NaN,,NaN,NaN,NaN,NaN,NaN,NaN,NaN,,NaN,NaN,NaN,NaN,NaN,NaN,43,1,2020-11-11_15h06.58.229,Pirates_expt3,2020.1.2,Win32,60,NaN,NaN,NaN,NaN,NaN,NaN,NaN,,NaN,NaN,NaN,NaN,NaN,NaN,,NaN,NaN,NaN,NaN,NaN,NaN,"",,NaN,NaN,NaN,NaN,NaN,NaN,NaN,NaN,NaN,NaN,NaN,NaN,NaN,,NaN,6,0,6,0,1,NaN,,NaN,,NaN,,NaN
NaN,NaN,NaN,NaN,NaN,"",NaN,NaN,"",NaN,NaN,1,1,48,2,86,18,92,0.05,0.1,0.15,0.1,86,18,92,0.05,0.1,0.15,2,3,0,0,18,18,387,8,space,0.195,0,48,387,8,192,0,,NaN,NaN,NaN,NaN,NaN,NaN,43,1,2020-11-11_15h06.58.229,Pirates_expt3,2020.1.2,Win32,60,NaN,NaN,NaN,NaN,NaN,NaN,NaN,,NaN,NaN,NaN,NaN,NaN,NaN,,NaN,NaN,NaN,NaN,NaN,NaN,"",,NaN,4,0,4,0,1,3,200,0,200,0,1,199,,NaN,200,0,200,0,1,199,,NaN,,NaN,,NaN
NaN,NaN,NaN,NaN,NaN,"",NaN,NaN,"",NaN,NaN,1,1,45,2,86,18,93,0.05,0.1,0.15,0.1,86,18,93,0.05,0.1,0.15,0,4,0,0,18,18,406,9,0,0,0,45,406,9,191,0,,NaN,NaN,NaN,NaN,NaN,NaN,43,1,2020-11-11_15h06.58.229,Pirates_expt3,2020.1.2,Win32,60,NaN,NaN,NaN,NaN,NaN,NaN,NaN,,NaN,NaN,NaN,NaN,NaN,NaN,,NaN,NaN,NaN,NaN,NaN,NaN,"",,NaN,4,0,4,0,1,3,200,0,200,0,1,199,,NaN,200,0,200,0,1,199,space,0.195,,NaN,,NaN
NaN,NaN,NaN,NaN,NaN,"",NaN,NaN,"",NaN,NaN,NaN,NaN,NaN,NaN,NaN,NaN,NaN,NaN,NaN,NaN,NaN,NaN,NaN,NaN,NaN,NaN,NaN,NaN,NaN,,NaN,NaN,NaN,NaN,NaN,,NaN,NaN,NaN,NaN,NaN,NaN,NaN,,NaN,NaN,NaN,NaN,NaN,NaN,43,1,2020-11-11_15h06.58.229,Pirates_expt3,2020.1.2,Win32,60,NaN,NaN,NaN,NaN,NaN,NaN,NaN,,NaN,NaN,NaN,NaN,NaN,NaN,,NaN,NaN,NaN,NaN,NaN,NaN,"",,NaN,NaN,NaN,NaN,NaN,NaN,NaN,NaN,NaN,NaN,NaN,NaN,NaN,,NaN,7,0,7,0,1,NaN,,NaN,,NaN,,NaN
NaN,NaN,NaN,NaN,NaN,"",NaN,NaN,"",NaN,NaN,1,1,45,2,86,12,93,0.05,0.1,0.15,0.1,86,12,93,0.05,0.1,0.15,2,3,0,0,12,12,406,9,space,0.115,0,45,406,9,191,0,,NaN,NaN,NaN,NaN,NaN,NaN,43,1,2020-11-11_15h06.58.229,Pirates_expt3,2020.1.2,Win32,60,NaN,NaN,NaN,NaN,NaN,NaN,NaN,,NaN,NaN,NaN,NaN,NaN,NaN,,NaN,NaN,NaN,NaN,NaN,NaN,"",,NaN,4,0,4,0,1,3,200,0,200,0,1,199,,NaN,200,0,200,0,1,199,,NaN,,NaN,,NaN
NaN,NaN,NaN,NaN,NaN,"",NaN,NaN,"",NaN,NaN,1,1,41,2,87,12,94,0.05,0.1,0.15,0.1,87,12,94,0.05,0.1,0.15,0,4,0,0,12,12,418,10,0,0,0,41,418,10,190,0,,NaN,NaN,NaN,NaN,NaN,NaN,43,1,2020-11-11_15h06.58.229,Pirates_expt3,2020.1.2,Win32,60,NaN,NaN,NaN,NaN,NaN,NaN,NaN,,NaN,NaN,NaN,NaN,NaN,NaN,,NaN,NaN,NaN,NaN,NaN,NaN,"",,NaN,4,0,4,0,1,3,200,0,200,0,1,199,,NaN,200,0,200,0,1,199,space,0.115,,NaN,,NaN
NaN,NaN,NaN,NaN,NaN,"",NaN,NaN,"",NaN,NaN,NaN,NaN,NaN,NaN,NaN,NaN,NaN,NaN,NaN,NaN,NaN,NaN,NaN,NaN,NaN,NaN,NaN,NaN,NaN,,NaN,NaN,NaN,NaN,NaN,,NaN,NaN,NaN,NaN,NaN,NaN,NaN,,NaN,NaN,NaN,NaN,NaN,NaN,43,1,2020-11-11_15h06.58.229,Pirates_expt3,2020.1.2,Win32,60,NaN,NaN,NaN,NaN,NaN,NaN,NaN,,NaN,NaN,NaN,NaN,NaN,NaN,,NaN,NaN,NaN,NaN,NaN,NaN,"",,NaN,NaN,NaN,NaN,NaN,NaN,NaN,NaN,NaN,NaN,NaN,NaN,NaN,,NaN,8,0,8,0,1,NaN,,NaN,,NaN,,NaN
NaN,NaN,NaN,NaN,NaN,"",NaN,NaN,"",NaN,NaN,1,1,41,2,87,7,94,0.05,0.1,0.15,0.1,87,7,94,0.05,0.1,0.15,2,3,0,0,7,7,418,10,space,0.555,0,41,418,10,190,0,,NaN,NaN,NaN,NaN,NaN,NaN,43,1,2020-11-11_15h06.58.229,Pirates_expt3,2020.1.2,Win32,60,NaN,NaN,NaN,NaN,NaN,NaN,NaN,,NaN,NaN,NaN,NaN,NaN,NaN,,NaN,NaN,NaN,NaN,NaN,NaN,"",,NaN,4,0,4,0,1,3,200,0,200,0,1,199,,NaN,200,0,200,0,1,199,,NaN,,NaN,,NaN
NaN,NaN,NaN,NaN,NaN,"",NaN,NaN,"",NaN,NaN,1,1,38,2,88,7,95,0.05,0.1,0.15,0.1,88,7,95,0.05,0.1,0.15,0,4,0,0,7,7,426,11,0,0,0,38,426,11,189,0,,NaN,NaN,NaN,NaN,NaN,NaN,43,1,2020-11-11_15h06.58.229,Pirates_expt3,2020.1.2,Win32,60,NaN,NaN,NaN,NaN,NaN,NaN,NaN,,NaN,NaN,NaN,NaN,NaN,NaN,,NaN,NaN,NaN,NaN,NaN,NaN,"",,NaN,4,0,4,0,1,3,200,0,200,0,1,199,,NaN,200,0,200,0,1,199,space,0.555,,NaN,,NaN
NaN,NaN,NaN,NaN,NaN,"",NaN,NaN,"",NaN,NaN,NaN,NaN,NaN,NaN,NaN,NaN,NaN,NaN,NaN,NaN,NaN,NaN,NaN,NaN,NaN,NaN,NaN,NaN,NaN,,NaN,NaN,NaN,NaN,NaN,,NaN,NaN,NaN,NaN,NaN,NaN,NaN,,NaN,NaN,NaN,NaN,NaN,NaN,43,1,2020-11-11_15h06.58.229,Pirates_expt3,2020.1.2,Win32,60,NaN,NaN,NaN,NaN,NaN,NaN,NaN,,NaN,NaN,NaN,NaN,NaN,NaN,,NaN,NaN,NaN,NaN,NaN,NaN,"",,NaN,NaN,NaN,NaN,NaN,NaN,NaN,NaN,NaN,NaN,NaN,NaN,NaN,,NaN,9,0,9,0,1,NaN,,NaN,,NaN,,NaN
NaN,NaN,NaN,NaN,NaN,"",NaN,NaN,"",NaN,NaN,1,1,38,2,88,4,95,0.05,0.1,0.15,0.1,88,4,95,0.05,0.1,0.15,2,3,0,0,4,4,426,11,space,0.12,0,38,426,11,189,0,,NaN,NaN,NaN,NaN,NaN,NaN,43,1,2020-11-11_15h06.58.229,Pirates_expt3,2020.1.2,Win32,60,NaN,NaN,NaN,NaN,NaN,NaN,NaN,,NaN,NaN,NaN,NaN,NaN,NaN,,NaN,NaN,NaN,NaN,NaN,NaN,"",,NaN,4,0,4,0,1,3,200,0,200,0,1,199,,NaN,200,0,200,0,1,199,,NaN,,NaN,,NaN
NaN,NaN,NaN,NaN,NaN,"",NaN,NaN,"",NaN,NaN,1,1,35,2,88,4,96,0.05,0.1,0.15,0.1,88,4,96,0.05,0.1,0.15,0,4,0,0,4,4,431,12,0,0,0,35,431,12,188,0,,NaN,NaN,NaN,NaN,NaN,NaN,43,1,2020-11-11_15h06.58.229,Pirates_expt3,2020.1.2,Win32,60,NaN,NaN,NaN,NaN,NaN,NaN,NaN,,NaN,NaN,NaN,NaN,NaN,NaN,,NaN,NaN,NaN,NaN,NaN,NaN,"",,NaN,4,0,4,0,1,3,200,0,200,0,1,199,,NaN,200,0,200,0,1,199,space,0.12,,NaN,,NaN
NaN,NaN,NaN,NaN,NaN,"",NaN,NaN,"",NaN,NaN,NaN,NaN,NaN,NaN,NaN,NaN,NaN,NaN,NaN,NaN,NaN,NaN,NaN,NaN,NaN,NaN,NaN,NaN,NaN,,NaN,NaN,NaN,NaN,NaN,,NaN,NaN,NaN,NaN,NaN,NaN,NaN,,NaN,NaN,NaN,NaN,NaN,NaN,43,1,2020-11-11_15h06.58.229,Pirates_expt3,2020.1.2,Win32,60,NaN,NaN,NaN,NaN,NaN,NaN,NaN,,NaN,NaN,NaN,NaN,NaN,NaN,,NaN,NaN,NaN,NaN,NaN,NaN,"",,NaN,NaN,NaN,NaN,NaN,NaN,NaN,NaN,NaN,NaN,NaN,NaN,NaN,,NaN,10,0,10,0,1,NaN,,NaN,,NaN,,NaN
NaN,NaN,NaN,NaN,NaN,"",NaN,NaN,"",NaN,NaN,1,1,35,2,88,2,96,0.05,0.1,0.15,0.1,88,2,96,0.05,0.1,0.15,2,3,0,0,2,2,431,12,space,0.05,0,35,431,12,188,0,,NaN,NaN,NaN,NaN,NaN,NaN,43,1,2020-11-11_15h06.58.229,Pirates_expt3,2020.1.2,Win32,60,NaN,NaN,NaN,NaN,NaN,NaN,NaN,,NaN,NaN,NaN,NaN,NaN,NaN,,NaN,NaN,NaN,NaN,NaN,NaN,"",,NaN,4,0,4,0,1,3,200,0,200,0,1,199,,NaN,200,0,200,0,1,199,,NaN,,NaN,,NaN
NaN,NaN,NaN,NaN,NaN,"",NaN,NaN,"",NaN,NaN,1,1,33,2,89,2,96,0.05,0.1,0.15,0.1,89,2,96,0.05,0.1,0.15,0,4,0,0,2,2,433,13,0,0,0,33,433,13,187,0,,NaN,NaN,NaN,NaN,NaN,NaN,43,1,2020-11-11_15h06.58.229,Pirates_expt3,2020.1.2,Win32,60,NaN,NaN,NaN,NaN,NaN,NaN,NaN,,NaN,NaN,NaN,NaN,NaN,NaN,,NaN,NaN,NaN,NaN,NaN,NaN,"",,NaN,4,0,4,0,1,3,200,0,200,0,1,199,,NaN,200,0,200,0,1,199,space,0.05,,NaN,,NaN
NaN,NaN,NaN,NaN,NaN,"",NaN,NaN,"",NaN,NaN,NaN,NaN,NaN,NaN,NaN,NaN,NaN,NaN,NaN,NaN,NaN,NaN,NaN,NaN,NaN,NaN,NaN,NaN,NaN,,NaN,NaN,NaN,NaN,NaN,,NaN,NaN,NaN,NaN,NaN,NaN,NaN,,NaN,NaN,NaN,NaN,NaN,NaN,43,1,2020-11-11_15h06.58.229,Pirates_expt3,2020.1.2,Win32,60,NaN,NaN,NaN,NaN,NaN,NaN,NaN,,NaN,NaN,NaN,NaN,NaN,NaN,,NaN,NaN,NaN,NaN,NaN,NaN,"",,NaN,NaN,NaN,NaN,NaN,NaN,NaN,NaN,NaN,NaN,NaN,NaN,NaN,,NaN,11,0,11,0,1,NaN,,NaN,,NaN,,NaN
NaN,NaN,NaN,NaN,NaN,"",NaN,NaN,"",NaN,NaN,1,1,33,2,89,1,96,0.05,0.1,0.15,0.1,89,1,96,0.05,0.1,0.15,2,3,0,0,1,1,433,13,space,10.135,0,33,433,13,187,0,,NaN,NaN,NaN,NaN,NaN,NaN,43,1,2020-11-11_15h06.58.229,Pirates_expt3,2020.1.2,Win32,60,NaN,NaN,NaN,NaN,NaN,NaN,NaN,,NaN,NaN,NaN,NaN,NaN,NaN,,NaN,NaN,NaN,NaN,NaN,NaN,"",,NaN,4,0,4,0,1,3,200,0,200,0,1,199,,NaN,200,0,200,0,1,199,,NaN,,NaN,,NaN
NaN,NaN,NaN,NaN,NaN,"",NaN,NaN,"",NaN,NaN,1,1,31,2,89,1,97,0.05,0.1,0.15,0.1,89,1,97,0.05,0.1,0.15,0,4,0,0,1,1,435,14,0,0,0,31,435,14,186,0,,NaN,NaN,NaN,NaN,NaN,NaN,43,1,2020-11-11_15h06.58.229,Pirates_expt3,2020.1.2,Win32,60,NaN,NaN,NaN,NaN,NaN,NaN,NaN,,NaN,NaN,NaN,NaN,NaN,NaN,,NaN,NaN,NaN,NaN,NaN,NaN,"",,NaN,4,0,4,0,1,3,200,0,200,0,1,199,,NaN,200,0,200,0,1,199,space,10.135,,NaN,,NaN
NaN,NaN,NaN,NaN,NaN,"",NaN,NaN,"",NaN,NaN,NaN,NaN,NaN,NaN,NaN,NaN,NaN,NaN,NaN,NaN,NaN,NaN,NaN,NaN,NaN,NaN,NaN,NaN,NaN,,NaN,NaN,NaN,NaN,NaN,,NaN,NaN,NaN,NaN,NaN,NaN,NaN,,NaN,NaN,NaN,NaN,NaN,NaN,43,1,2020-11-11_15h06.58.229,Pirates_expt3,2020.1.2,Win32,60,NaN,NaN,NaN,NaN,NaN,NaN,NaN,,NaN,NaN,NaN,NaN,NaN,NaN,,NaN,NaN,NaN,NaN,NaN,NaN,"",,NaN,NaN,NaN,NaN,NaN,NaN,NaN,NaN,NaN,NaN,NaN,NaN,NaN,,NaN,12,0,12,0,1,NaN,,NaN,,NaN,,NaN
NaN,NaN,NaN,NaN,NaN,"",NaN,NaN,"",NaN,NaN,1,1,31,2,89,0,97,0.05,0.1,0.15,0.1,89,0,97,0.05,0.1,0.15,2,3,0,0,0,0,435,14,space,0.05,0,31,435,14,186,0,,NaN,NaN,NaN,NaN,NaN,NaN,43,1,2020-11-11_15h06.58.229,Pirates_expt3,2020.1.2,Win32,60,NaN,NaN,NaN,NaN,NaN,NaN,NaN,,NaN,NaN,NaN,NaN,NaN,NaN,,NaN,NaN,NaN,NaN,NaN,NaN,"",,NaN,4,0,4,0,1,3,200,0,200,0,1,199,,NaN,200,0,200,0,1,199,,NaN,,NaN,,NaN
NaN,NaN,NaN,NaN,NaN,"",NaN,NaN,"",NaN,NaN,1,1,29,2,90,0,97,0.05,0.1,0.15,0.1,90,0,97,0.05,0.1,0.15,0,4,0,0,0,0,435,15,0,0,0,29,435,15,185,0,,NaN,NaN,NaN,NaN,NaN,NaN,43,1,2020-11-11_15h06.58.229,Pirates_expt3,2020.1.2,Win32,60,NaN,NaN,NaN,NaN,NaN,NaN,NaN,,NaN,NaN,NaN,NaN,NaN,NaN,,NaN,NaN,NaN,NaN,NaN,NaN,"",,NaN,4,0,4,0,1,3,200,0,200,0,1,199,,NaN,200,0,200,0,1,199,space,0.05,,NaN,,NaN
NaN,NaN,NaN,NaN,NaN,"",NaN,NaN,"",NaN,NaN,NaN,NaN,NaN,NaN,NaN,NaN,NaN,NaN,NaN,NaN,NaN,NaN,NaN,NaN,NaN,NaN,NaN,NaN,NaN,,NaN,NaN,NaN,NaN,NaN,,NaN,NaN,NaN,NaN,NaN,NaN,NaN,,NaN,NaN,NaN,NaN,NaN,NaN,43,1,2020-11-11_15h06.58.229,Pirates_expt3,2020.1.2,Win32,60,NaN,NaN,NaN,NaN,NaN,NaN,NaN,,NaN,NaN,NaN,NaN,NaN,NaN,,NaN,NaN,NaN,NaN,NaN,NaN,"",,NaN,NaN,NaN,NaN,NaN,NaN,NaN,NaN,NaN,NaN,NaN,NaN,NaN,,NaN,13,0,13,0,1,NaN,,NaN,,NaN,,NaN
NaN,NaN,NaN,NaN,NaN,"",NaN,NaN,"",NaN,NaN,1,1,29,2,90,0,97,0.05,0.1,0.15,0.1,90,0,97,0.05,0.1,0.15,2,3,0,0,0,0,435,15,space,0.34,0,29,435,15,185,0,,NaN,NaN,NaN,NaN,NaN,NaN,43,1,2020-11-11_15h06.58.229,Pirates_expt3,2020.1.2,Win32,60,NaN,NaN,NaN,NaN,NaN,NaN,NaN,,NaN,NaN,NaN,NaN,NaN,NaN,,NaN,NaN,NaN,NaN,NaN,NaN,"",,NaN,4,0,4,0,1,3,200,0,200,0,1,199,,NaN,200,0,200,0,1,199,,NaN,,NaN,,NaN
NaN,NaN,NaN,NaN,NaN,"",NaN,NaN,"",NaN,NaN,1,1,27,2,90,0,98,0.05,0.1,0.15,0.1,90,0,98,0.05,0.1,0.15,0,4,0,0,0,0,436,16,0,0,0,27,436,16,184,0,,NaN,NaN,NaN,NaN,NaN,NaN,43,1,2020-11-11_15h06.58.229,Pirates_expt3,2020.1.2,Win32,60,NaN,NaN,NaN,NaN,NaN,NaN,NaN,,NaN,NaN,NaN,NaN,NaN,NaN,,NaN,NaN,NaN,NaN,NaN,NaN,"",,NaN,4,0,4,0,1,3,200,0,200,0,1,199,,NaN,200,0,200,0,1,199,space,0.34,,NaN,,NaN
NaN,NaN,NaN,NaN,NaN,"",NaN,NaN,"",NaN,NaN,NaN,NaN,NaN,NaN,NaN,NaN,NaN,NaN,NaN,NaN,NaN,NaN,NaN,NaN,NaN,NaN,NaN,NaN,NaN,,NaN,NaN,NaN,NaN,NaN,,NaN,NaN,NaN,NaN,NaN,NaN,NaN,,NaN,NaN,NaN,NaN,NaN,NaN,43,1,2020-11-11_15h06.58.229,Pirates_expt3,2020.1.2,Win32,60,NaN,NaN,NaN,NaN,NaN,NaN,NaN,,NaN,NaN,NaN,NaN,NaN,NaN,,NaN,NaN,NaN,NaN,NaN,NaN,"",,NaN,NaN,NaN,NaN,NaN,NaN,NaN,NaN,NaN,NaN,NaN,NaN,NaN,,NaN,14,0,14,0,1,NaN,,NaN,,NaN,,NaN
NaN,NaN,NaN,NaN,NaN,"",NaN,NaN,"",NaN,NaN,1,1,27,2,90,0,98,0.05,0.1,0.15,0.1,90,0,98,0.05,0.1,0.15,3,3,0,0,0,0,436,16,s,0.235,15,27,436,16,184,0,,NaN,NaN,NaN,NaN,NaN,NaN,43,1,2020-11-11_15h06.58.229,Pirates_expt3,2020.1.2,Win32,60,NaN,NaN,NaN,NaN,NaN,NaN,NaN,,NaN,NaN,NaN,NaN,NaN,NaN,,NaN,NaN,NaN,NaN,NaN,NaN,"",,NaN,4,0,4,0,1,3,200,0,200,0,1,199,,NaN,200,0,200,0,1,199,,NaN,,NaN,,NaN
NaN,NaN,NaN,NaN,NaN,"",NaN,NaN,"",NaN,NaN,1,1,25,2,91,10,98,0.05,0.1,0.15,0.1,91,10,98,0.05,0.1,0.15,0,4,0,0,10,0,436,17,0,0,0,25,436,17,183,44.375,,NaN,NaN,NaN,NaN,NaN,NaN,43,1,2020-11-11_15h06.58.229,Pirates_expt3,2020.1.2,Win32,60,NaN,NaN,NaN,NaN,NaN,NaN,NaN,,NaN,NaN,NaN,NaN,NaN,NaN,,NaN,NaN,NaN,NaN,NaN,NaN,"",,NaN,4,0,4,0,1,3,200,0,200,0,1,199,,NaN,200,0,200,0,1,199,s,0.235,,NaN,,NaN
NaN,NaN,NaN,NaN,NaN,"",NaN,NaN,"",NaN,NaN,NaN,NaN,NaN,NaN,NaN,NaN,NaN,NaN,NaN,NaN,NaN,NaN,NaN,NaN,NaN,NaN,NaN,NaN,NaN,,NaN,NaN,NaN,NaN,NaN,,NaN,NaN,NaN,NaN,NaN,NaN,NaN,,NaN,NaN,NaN,NaN,NaN,NaN,43,1,2020-11-11_15h06.58.229,Pirates_expt3,2020.1.2,Win32,60,NaN,NaN,NaN,NaN,NaN,NaN,NaN,,NaN,NaN,NaN,NaN,NaN,NaN,,NaN,NaN,NaN,NaN,NaN,NaN,"",,NaN,NaN,NaN,NaN,NaN,NaN,NaN,0,0,0,0,1,NaN,,NaN,NaN,NaN,NaN,NaN,NaN,NaN,,NaN,,NaN,,NaN
NaN,NaN,NaN,NaN,NaN,"",NaN,NaN,"",NaN,NaN,1,1,25,3,91,10,98,0.05,0.1,0.15,0.15,91,10,98,0.05,0.1,0.15,1,1,k,3.27,0,0,436,18,N/A,0,0,25,436,18,182,0,,NaN,NaN,NaN,NaN,NaN,NaN,43,1,2020-11-11_15h06.58.229,Pirates_expt3,2020.1.2,Win32,60,NaN,NaN,NaN,NaN,NaN,NaN,NaN,,NaN,NaN,NaN,NaN,NaN,NaN,,NaN,NaN,NaN,NaN,NaN,NaN,"",,NaN,4,0,4,0,1,3,200,0,200,0,1,199,,NaN,NaN,NaN,NaN,NaN,NaN,NaN,,NaN,,NaN,,NaN
NaN,NaN,NaN,NaN,NaN,"",NaN,NaN,"",NaN,NaN,1,1,25,3,91,19,98,0.05,0.1,0.15,0.15,91,19,98,0.05,0.1,0.15,0,2,0,0,0,0,436,18,N/A,0,0,25,436,18,182,0,,NaN,NaN,NaN,NaN,NaN,NaN,43,1,2020-11-11_15h06.58.229,Pirates_expt3,2020.1.2,Win32,60,NaN,NaN,NaN,NaN,NaN,NaN,NaN,,NaN,NaN,NaN,NaN,NaN,NaN,,NaN,NaN,NaN,NaN,NaN,NaN,"",,NaN,4,0,4,0,1,3,200,0,200,0,1,199,k,3.27,NaN,NaN,NaN,NaN,NaN,NaN,,NaN,,NaN,,NaN
NaN,NaN,NaN,NaN,NaN,"",NaN,NaN,"",NaN,NaN,1,1,24,3,91,19,98,0.05,0.1,0.15,0.15,91,19,98,0.05,0.1,0.15,2,3,0,0,98,98,436,18,space,13.345,0,24,436,18,182,0,,NaN,NaN,NaN,NaN,NaN,NaN,43,1,2020-11-11_15h06.58.229,Pirates_expt3,2020.1.2,Win32,60,NaN,NaN,NaN,NaN,NaN,NaN,NaN,,NaN,NaN,NaN,NaN,NaN,NaN,,NaN,NaN,NaN,NaN,NaN,NaN,"",,NaN,4,0,4,0,1,3,200,0,200,0,1,199,,NaN,200,0,200,0,1,199,,NaN,,NaN,,NaN
NaN,NaN,NaN,NaN,NaN,"",NaN,NaN,"",NaN,NaN,1,1,28,3,92,27,98,0.05,0.1,0.15,0.15,92,27,98,0.05,0.1,0.15,0,4,0,0,98,98,534,19,0,0,0,28,534,19,181,0,,NaN,NaN,NaN,NaN,NaN,NaN,43,1,2020-11-11_15h06.58.229,Pirates_expt3,2020.1.2,Win32,60,NaN,NaN,NaN,NaN,NaN,NaN,NaN,,NaN,NaN,NaN,NaN,NaN,NaN,,NaN,NaN,NaN,NaN,NaN,NaN,"",,NaN,4,0,4,0,1,3,200,0,200,0,1,199,,NaN,200,0,200,0,1,199,space,13.345,,NaN,,NaN
NaN,NaN,NaN,NaN,NaN,"",NaN,NaN,"",NaN,NaN,NaN,NaN,NaN,NaN,NaN,NaN,NaN,NaN,NaN,NaN,NaN,NaN,NaN,NaN,NaN,NaN,NaN,NaN,NaN,,NaN,NaN,NaN,NaN,NaN,,NaN,NaN,NaN,NaN,NaN,NaN,NaN,,NaN,NaN,NaN,NaN,NaN,NaN,43,1,2020-11-11_15h06.58.229,Pirates_expt3,2020.1.2,Win32,60,NaN,NaN,NaN,NaN,NaN,NaN,NaN,,NaN,NaN,NaN,NaN,NaN,NaN,,NaN,NaN,NaN,NaN,NaN,NaN,"",,NaN,NaN,NaN,NaN,NaN,NaN,NaN,NaN,NaN,NaN,NaN,NaN,NaN,,NaN,0,0,0,0,1,NaN,,NaN,,NaN,,NaN
NaN,NaN,NaN,NaN,NaN,"",NaN,NaN,"",NaN,NaN,1,1,28,3,92,27,93,0.05,0.1,0.15,0.15,92,27,93,0.05,0.1,0.15,2,3,0,0,93,93,534,19,space,0.25,0,28,534,19,181,0,,NaN,NaN,NaN,NaN,NaN,NaN,43,1,2020-11-11_15h06.58.229,Pirates_expt3,2020.1.2,Win32,60,NaN,NaN,NaN,NaN,NaN,NaN,NaN,,NaN,NaN,NaN,NaN,NaN,NaN,,NaN,NaN,NaN,NaN,NaN,NaN,"",,NaN,4,0,4,0,1,3,200,0,200,0,1,199,,NaN,200,0,200,0,1,199,,NaN,,NaN,,NaN
NaN,NaN,NaN,NaN,NaN,"",NaN,NaN,"",NaN,NaN,1,1,31,3,92,34,93,0.05,0.1,0.15,0.15,92,34,93,0.05,0.1,0.15,0,4,0,0,93,93,628,20,0,0,0,31,628,20,180,0,,NaN,NaN,NaN,NaN,NaN,NaN,43,1,2020-11-11_15h06.58.229,Pirates_expt3,2020.1.2,Win32,60,NaN,NaN,NaN,NaN,NaN,NaN,NaN,,NaN,NaN,NaN,NaN,NaN,NaN,,NaN,NaN,NaN,NaN,NaN,NaN,"",,NaN,4,0,4,0,1,3,200,0,200,0,1,199,,NaN,200,0,200,0,1,199,space,0.25,,NaN,,NaN
NaN,NaN,NaN,NaN,NaN,"",NaN,NaN,"",NaN,NaN,NaN,NaN,NaN,NaN,NaN,NaN,NaN,NaN,NaN,NaN,NaN,NaN,NaN,NaN,NaN,NaN,NaN,NaN,NaN,,NaN,NaN,NaN,NaN,NaN,,NaN,NaN,NaN,NaN,NaN,NaN,NaN,,NaN,NaN,NaN,NaN,NaN,NaN,43,1,2020-11-11_15h06.58.229,Pirates_expt3,2020.1.2,Win32,60,NaN,NaN,NaN,NaN,NaN,NaN,NaN,,NaN,NaN,NaN,NaN,NaN,NaN,,NaN,NaN,NaN,NaN,NaN,NaN,"",,NaN,NaN,NaN,NaN,NaN,NaN,NaN,NaN,NaN,NaN,NaN,NaN,NaN,,NaN,1,0,1,0,1,NaN,,NaN,,NaN,,NaN
NaN,NaN,NaN,NaN,NaN,"",NaN,NaN,"",NaN,NaN,1,1,31,3,92,34,84,0.05,0.1,0.15,0.15,92,34,84,0.05,0.1,0.15,2,3,0,0,84,84,628,20,space,0.02,0,31,628,20,180,0,,NaN,NaN,NaN,NaN,NaN,NaN,43,1,2020-11-11_15h06.58.229,Pirates_expt3,2020.1.2,Win32,60,NaN,NaN,NaN,NaN,NaN,NaN,NaN,,NaN,NaN,NaN,NaN,NaN,NaN,,NaN,NaN,NaN,NaN,NaN,NaN,"",,NaN,4,0,4,0,1,3,200,0,200,0,1,199,,NaN,200,0,200,0,1,199,,NaN,,NaN,,NaN
NaN,NaN,NaN,NaN,NaN,"",NaN,NaN,"",NaN,NaN,1,1,33,3,92,41,84,0.05,0.1,0.15,0.15,92,41,84,0.05,0.1,0.15,0,4,0,0,84,84,713,21,0,0,0,33,713,21,179,0,,NaN,NaN,NaN,NaN,NaN,NaN,43,1,2020-11-11_15h06.58.229,Pirates_expt3,2020.1.2,Win32,60,NaN,NaN,NaN,NaN,NaN,NaN,NaN,,NaN,NaN,NaN,NaN,NaN,NaN,,NaN,NaN,NaN,NaN,NaN,NaN,"",,NaN,4,0,4,0,1,3,200,0,200,0,1,199,,NaN,200,0,200,0,1,199,space,0.02,,NaN,,NaN
NaN,NaN,NaN,NaN,NaN,"",NaN,NaN,"",NaN,NaN,NaN,NaN,NaN,NaN,NaN,NaN,NaN,NaN,NaN,NaN,NaN,NaN,NaN,NaN,NaN,NaN,NaN,NaN,NaN,,NaN,NaN,NaN,NaN,NaN,,NaN,NaN,NaN,NaN,NaN,NaN,NaN,,NaN,NaN,NaN,NaN,NaN,NaN,43,1,2020-11-11_15h06.58.229,Pirates_expt3,2020.1.2,Win32,60,NaN,NaN,NaN,NaN,NaN,NaN,NaN,,NaN,NaN,NaN,NaN,NaN,NaN,,NaN,NaN,NaN,NaN,NaN,NaN,"",,NaN,NaN,NaN,NaN,NaN,NaN,NaN,NaN,NaN,NaN,NaN,NaN,NaN,,NaN,2,0,2,0,1,NaN,,NaN,,NaN,,NaN
NaN,NaN,NaN,NaN,NaN,"",NaN,NaN,"",NaN,NaN,1,1,33,3,92,41,72,0.05,0.1,0.15,0.15,92,41,72,0.05,0.1,0.15,2,3,0,0,72,72,713,21,space,0.225,0,33,713,21,179,0,,NaN,NaN,NaN,NaN,NaN,NaN,43,1,2020-11-11_15h06.58.229,Pirates_expt3,2020.1.2,Win32,60,NaN,NaN,NaN,NaN,NaN,NaN,NaN,,NaN,NaN,NaN,NaN,NaN,NaN,,NaN,NaN,NaN,NaN,NaN,NaN,"",,NaN,4,0,4,0,1,3,200,0,200,0,1,199,,NaN,200,0,200,0,1,199,,NaN,,NaN,,NaN
NaN,NaN,NaN,NaN,NaN,"",NaN,NaN,"",NaN,NaN,1,1,35,3,93,46,72,0.05,0.1,0.15,0.15,93,46,72,0.05,0.1,0.15,0,4,0,0,72,72,785,22,0,0,0,35,785,22,178,0,,NaN,NaN,NaN,NaN,NaN,NaN,43,1,2020-11-11_15h06.58.229,Pirates_expt3,2020.1.2,Win32,60,NaN,NaN,NaN,NaN,NaN,NaN,NaN,,NaN,NaN,NaN,NaN,NaN,NaN,,NaN,NaN,NaN,NaN,NaN,NaN,"",,NaN,4,0,4,0,1,3,200,0,200,0,1,199,,NaN,200,0,200,0,1,199,space,0.225,,NaN,,NaN
NaN,NaN,NaN,NaN,NaN,"",NaN,NaN,"",NaN,NaN,NaN,NaN,NaN,NaN,NaN,NaN,NaN,NaN,NaN,NaN,NaN,NaN,NaN,NaN,NaN,NaN,NaN,NaN,NaN,,NaN,NaN,NaN,NaN,NaN,,NaN,NaN,NaN,NaN,NaN,NaN,NaN,,NaN,NaN,NaN,NaN,NaN,NaN,43,1,2020-11-11_15h06.58.229,Pirates_expt3,2020.1.2,Win32,60,NaN,NaN,NaN,NaN,NaN,NaN,NaN,,NaN,NaN,NaN,NaN,NaN,NaN,,NaN,NaN,NaN,NaN,NaN,NaN,"",,NaN,NaN,NaN,NaN,NaN,NaN,NaN,NaN,NaN,NaN,NaN,NaN,NaN,,NaN,3,0,3,0,1,NaN,,NaN,,NaN,,NaN
NaN,NaN,NaN,NaN,NaN,"",NaN,NaN,"",NaN,NaN,1,1,35,3,93,46,59,0.05,0.1,0.15,0.15,93,46,59,0.05,0.1,0.15,2,3,0,0,59,59,785,22,space,4,0,35,785,22,178,0,,NaN,NaN,NaN,NaN,NaN,NaN,43,1,2020-11-11_15h06.58.229,Pirates_expt3,2020.1.2,Win32,60,NaN,NaN,NaN,NaN,NaN,NaN,NaN,,NaN,NaN,NaN,NaN,NaN,NaN,,NaN,NaN,NaN,NaN,NaN,NaN,"",,NaN,4,0,4,0,1,3,200,0,200,0,1,199,,NaN,200,0,200,0,1,199,,NaN,,NaN,,NaN
NaN,NaN,NaN,NaN,NaN,"",NaN,NaN,"",NaN,NaN,1,1,36,3,93,52,59,0.05,0.1,0.15,0.15,93,52,59,0.05,0.1,0.15,0,4,0,0,59,59,844,23,0,0,0,36,844,23,177,0,,NaN,NaN,NaN,NaN,NaN,NaN,43,1,2020-11-11_15h06.58.229,Pirates_expt3,2020.1.2,Win32,60,NaN,NaN,NaN,NaN,NaN,NaN,NaN,,NaN,NaN,NaN,NaN,NaN,NaN,,NaN,NaN,NaN,NaN,NaN,NaN,"",,NaN,4,0,4,0,1,3,200,0,200,0,1,199,,NaN,200,0,200,0,1,199,space,4,,NaN,,NaN
NaN,NaN,NaN,NaN,NaN,"",NaN,NaN,"",NaN,NaN,NaN,NaN,NaN,NaN,NaN,NaN,NaN,NaN,NaN,NaN,NaN,NaN,NaN,NaN,NaN,NaN,NaN,NaN,NaN,,NaN,NaN,NaN,NaN,NaN,,NaN,NaN,NaN,NaN,NaN,NaN,NaN,,NaN,NaN,NaN,NaN,NaN,NaN,43,1,2020-11-11_15h06.58.229,Pirates_expt3,2020.1.2,Win32,60,NaN,NaN,NaN,NaN,NaN,NaN,NaN,,NaN,NaN,NaN,NaN,NaN,NaN,,NaN,NaN,NaN,NaN,NaN,NaN,"",,NaN,NaN,NaN,NaN,NaN,NaN,NaN,NaN,NaN,NaN,NaN,NaN,NaN,,NaN,4,0,4,0,1,NaN,,NaN,,NaN,,NaN
NaN,NaN,NaN,NaN,NaN,"",NaN,NaN,"",NaN,NaN,1,1,36,3,93,52,45,0.05,0.1,0.15,0.15,93,52,45,0.05,0.1,0.15,2,3,0,0,45,45,844,23,space,0.26,0,36,844,23,177,0,,NaN,NaN,NaN,NaN,NaN,NaN,43,1,2020-11-11_15h06.58.229,Pirates_expt3,2020.1.2,Win32,60,NaN,NaN,NaN,NaN,NaN,NaN,NaN,,NaN,NaN,NaN,NaN,NaN,NaN,,NaN,NaN,NaN,NaN,NaN,NaN,"",,NaN,4,0,4,0,1,3,200,0,200,0,1,199,,NaN,200,0,200,0,1,199,,NaN,,NaN,,NaN
NaN,NaN,NaN,NaN,NaN,"",NaN,NaN,"",NaN,NaN,1,1,37,3,93,57,45,0.05,0.1,0.15,0.15,93,57,45,0.05,0.1,0.15,0,4,0,0,45,45,890,24,0,0,0,37,890,24,176,0,,NaN,NaN,NaN,NaN,NaN,NaN,43,1,2020-11-11_15h06.58.229,Pirates_expt3,2020.1.2,Win32,60,NaN,NaN,NaN,NaN,NaN,NaN,NaN,,NaN,NaN,NaN,NaN,NaN,NaN,,NaN,NaN,NaN,NaN,NaN,NaN,"",,NaN,4,0,4,0,1,3,200,0,200,0,1,199,,NaN,200,0,200,0,1,199,space,0.26,,NaN,,NaN
NaN,NaN,NaN,NaN,NaN,"",NaN,NaN,"",NaN,NaN,NaN,NaN,NaN,NaN,NaN,NaN,NaN,NaN,NaN,NaN,NaN,NaN,NaN,NaN,NaN,NaN,NaN,NaN,NaN,,NaN,NaN,NaN,NaN,NaN,,NaN,NaN,NaN,NaN,NaN,NaN,NaN,,NaN,NaN,NaN,NaN,NaN,NaN,43,1,2020-11-11_15h06.58.229,Pirates_expt3,2020.1.2,Win32,60,NaN,NaN,NaN,NaN,NaN,NaN,NaN,,NaN,NaN,NaN,NaN,NaN,NaN,,NaN,NaN,NaN,NaN,NaN,NaN,"",,NaN,NaN,NaN,NaN,NaN,NaN,NaN,NaN,NaN,NaN,NaN,NaN,NaN,,NaN,5,0,5,0,1,NaN,,NaN,,NaN,,NaN
NaN,NaN,NaN,NaN,NaN,"",NaN,NaN,"",NaN,NaN,1,1,37,3,93,57,33,0.05,0.1,0.15,0.15,93,57,33,0.05,0.1,0.15,2,3,0,0,33,33,890,24,space,0.325,0,37,890,24,176,0,,NaN,NaN,NaN,NaN,NaN,NaN,43,1,2020-11-11_15h06.58.229,Pirates_expt3,2020.1.2,Win32,60,NaN,NaN,NaN,NaN,NaN,NaN,NaN,,NaN,NaN,NaN,NaN,NaN,NaN,,NaN,NaN,NaN,NaN,NaN,NaN,"",,NaN,4,0,4,0,1,3,200,0,200,0,1,199,,NaN,200,0,200,0,1,199,,NaN,,NaN,,NaN
NaN,NaN,NaN,NaN,NaN,"",NaN,NaN,"",NaN,NaN,1,1,36,3,94,61,33,0.05,0.1,0.15,0.15,94,61,33,0.05,0.1,0.15,0,4,0,0,33,33,923,25,0,0,0,36,923,25,175,0,,NaN,NaN,NaN,NaN,NaN,NaN,43,1,2020-11-11_15h06.58.229,Pirates_expt3,2020.1.2,Win32,60,NaN,NaN,NaN,NaN,NaN,NaN,NaN,,NaN,NaN,NaN,NaN,NaN,NaN,,NaN,NaN,NaN,NaN,NaN,NaN,"",,NaN,4,0,4,0,1,3,200,0,200,0,1,199,,NaN,200,0,200,0,1,199,space,0.325,,NaN,,NaN
NaN,NaN,NaN,NaN,NaN,"",NaN,NaN,"",NaN,NaN,NaN,NaN,NaN,NaN,NaN,NaN,NaN,NaN,NaN,NaN,NaN,NaN,NaN,NaN,NaN,NaN,NaN,NaN,NaN,,NaN,NaN,NaN,NaN,NaN,,NaN,NaN,NaN,NaN,NaN,NaN,NaN,,NaN,NaN,NaN,NaN,NaN,NaN,43,1,2020-11-11_15h06.58.229,Pirates_expt3,2020.1.2,Win32,60,NaN,NaN,NaN,NaN,NaN,NaN,NaN,,NaN,NaN,NaN,NaN,NaN,NaN,,NaN,NaN,NaN,NaN,NaN,NaN,"",,NaN,NaN,NaN,NaN,NaN,NaN,NaN,NaN,NaN,NaN,NaN,NaN,NaN,,NaN,6,0,6,0,1,NaN,,NaN,,NaN,,NaN
NaN,NaN,NaN,NaN,NaN,"",NaN,NaN,"",NaN,NaN,1,1,36,3,94,61,23,0.05,0.1,0.15,0.15,94,61,23,0.05,0.1,0.15,2,3,0,0,23,23,923,25,space,0.19,0,36,923,25,175,0,,NaN,NaN,NaN,NaN,NaN,NaN,43,1,2020-11-11_15h06.58.229,Pirates_expt3,2020.1.2,Win32,60,NaN,NaN,NaN,NaN,NaN,NaN,NaN,,NaN,NaN,NaN,NaN,NaN,NaN,,NaN,NaN,NaN,NaN,NaN,NaN,"",,NaN,4,0,4,0,1,3,200,0,200,0,1,199,,NaN,200,0,200,0,1,199,,NaN,,NaN,,NaN
NaN,NaN,NaN,NaN,NaN,"",NaN,NaN,"",NaN,NaN,1,1,36,3,94,65,23,0.05,0.1,0.15,0.15,94,65,23,0.05,0.1,0.15,0,4,0,0,23,23,947,26,0,0,0,36,947,26,174,0,,NaN,NaN,NaN,NaN,NaN,NaN,43,1,2020-11-11_15h06.58.229,Pirates_expt3,2020.1.2,Win32,60,NaN,NaN,NaN,NaN,NaN,NaN,NaN,,NaN,NaN,NaN,NaN,NaN,NaN,,NaN,NaN,NaN,NaN,NaN,NaN,"",,NaN,4,0,4,0,1,3,200,0,200,0,1,199,,NaN,200,0,200,0,1,199,space,0.19,,NaN,,NaN
NaN,NaN,NaN,NaN,NaN,"",NaN,NaN,"",NaN,NaN,NaN,NaN,NaN,NaN,NaN,NaN,NaN,NaN,NaN,NaN,NaN,NaN,NaN,NaN,NaN,NaN,NaN,NaN,NaN,,NaN,NaN,NaN,NaN,NaN,,NaN,NaN,NaN,NaN,NaN,NaN,NaN,,NaN,NaN,NaN,NaN,NaN,NaN,43,1,2020-11-11_15h06.58.229,Pirates_expt3,2020.1.2,Win32,60,NaN,NaN,NaN,NaN,NaN,NaN,NaN,,NaN,NaN,NaN,NaN,NaN,NaN,,NaN,NaN,NaN,NaN,NaN,NaN,"",,NaN,NaN,NaN,NaN,NaN,NaN,NaN,NaN,NaN,NaN,NaN,NaN,NaN,,NaN,7,0,7,0,1,NaN,,NaN,,NaN,,NaN
NaN,NaN,NaN,NaN,NaN,"",NaN,NaN,"",NaN,NaN,1,1,36,3,94,65,15,0.05,0.1,0.15,0.15,94,65,15,0.05,0.1,0.15,2,3,0,0,15,15,947,26,space,1.395,0,36,947,26,174,0,,NaN,NaN,NaN,NaN,NaN,NaN,43,1,2020-11-11_15h06.58.229,Pirates_expt3,2020.1.2,Win32,60,NaN,NaN,NaN,NaN,NaN,NaN,NaN,,NaN,NaN,NaN,NaN,NaN,NaN,,NaN,NaN,NaN,NaN,NaN,NaN,"",,NaN,4,0,4,0,1,3,200,0,200,0,1,199,,NaN,200,0,200,0,1,199,,NaN,,NaN,,NaN
NaN,NaN,NaN,NaN,NaN,"",NaN,NaN,"",NaN,NaN,1,1,35,3,94,68,15,0.05,0.1,0.15,0.15,94,68,15,0.05,0.1,0.15,0,4,0,0,15,15,962,27,0,0,0,35,962,27,173,0,,NaN,NaN,NaN,NaN,NaN,NaN,43,1,2020-11-11_15h06.58.229,Pirates_expt3,2020.1.2,Win32,60,NaN,NaN,NaN,NaN,NaN,NaN,NaN,,NaN,NaN,NaN,NaN,NaN,NaN,,NaN,NaN,NaN,NaN,NaN,NaN,"",,NaN,4,0,4,0,1,3,200,0,200,0,1,199,,NaN,200,0,200,0,1,199,space,1.395,,NaN,,NaN
NaN,NaN,NaN,NaN,NaN,"",NaN,NaN,"",NaN,NaN,NaN,NaN,NaN,NaN,NaN,NaN,NaN,NaN,NaN,NaN,NaN,NaN,NaN,NaN,NaN,NaN,NaN,NaN,NaN,,NaN,NaN,NaN,NaN,NaN,,NaN,NaN,NaN,NaN,NaN,NaN,NaN,,NaN,NaN,NaN,NaN,NaN,NaN,43,1,2020-11-11_15h06.58.229,Pirates_expt3,2020.1.2,Win32,60,NaN,NaN,NaN,NaN,NaN,NaN,NaN,,NaN,NaN,NaN,NaN,NaN,NaN,,NaN,NaN,NaN,NaN,NaN,NaN,"",,NaN,NaN,NaN,NaN,NaN,NaN,NaN,NaN,NaN,NaN,NaN,NaN,NaN,,NaN,8,0,8,0,1,NaN,,NaN,,NaN,,NaN
NaN,NaN,NaN,NaN,NaN,"",NaN,NaN,"",NaN,NaN,1,1,35,3,94,68,9,0.05,0.1,0.15,0.15,94,68,9,0.05,0.1,0.15,2,3,0,0,9,9,962,27,space,0.075,0,35,962,27,173,0,,NaN,NaN,NaN,NaN,NaN,NaN,43,1,2020-11-11_15h06.58.229,Pirates_expt3,2020.1.2,Win32,60,NaN,NaN,NaN,NaN,NaN,NaN,NaN,,NaN,NaN,NaN,NaN,NaN,NaN,,NaN,NaN,NaN,NaN,NaN,NaN,"",,NaN,4,0,4,0,1,3,200,0,200,0,1,199,,NaN,200,0,200,0,1,199,,NaN,,NaN,,NaN
NaN,NaN,NaN,NaN,NaN,"",NaN,NaN,"",NaN,NaN,1,1,34,3,95,71,9,0.05,0.1,0.15,0.15,95,71,9,0.05,0.1,0.15,0,4,0,0,9,9,972,28,0,0,0,34,972,28,172,0,,NaN,NaN,NaN,NaN,NaN,NaN,43,1,2020-11-11_15h06.58.229,Pirates_expt3,2020.1.2,Win32,60,NaN,NaN,NaN,NaN,NaN,NaN,NaN,,NaN,NaN,NaN,NaN,NaN,NaN,,NaN,NaN,NaN,NaN,NaN,NaN,"",,NaN,4,0,4,0,1,3,200,0,200,0,1,199,,NaN,200,0,200,0,1,199,space,0.075,,NaN,,NaN
NaN,NaN,NaN,NaN,NaN,"",NaN,NaN,"",NaN,NaN,NaN,NaN,NaN,NaN,NaN,NaN,NaN,NaN,NaN,NaN,NaN,NaN,NaN,NaN,NaN,NaN,NaN,NaN,NaN,,NaN,NaN,NaN,NaN,NaN,,NaN,NaN,NaN,NaN,NaN,NaN,NaN,,NaN,NaN,NaN,NaN,NaN,NaN,43,1,2020-11-11_15h06.58.229,Pirates_expt3,2020.1.2,Win32,60,NaN,NaN,NaN,NaN,NaN,NaN,NaN,,NaN,NaN,NaN,NaN,NaN,NaN,,NaN,NaN,NaN,NaN,NaN,NaN,"",,NaN,NaN,NaN,NaN,NaN,NaN,NaN,NaN,NaN,NaN,NaN,NaN,NaN,,NaN,9,0,9,0,1,NaN,,NaN,,NaN,,NaN
NaN,NaN,NaN,NaN,NaN,"",NaN,NaN,"",NaN,NaN,1,1,34,3,95,71,5,0.05,0.1,0.15,0.15,95,71,5,0.05,0.1,0.15,2,3,0,0,5,5,972,28,space,0.58,0,34,972,28,172,0,,NaN,NaN,NaN,NaN,NaN,NaN,43,1,2020-11-11_15h06.58.229,Pirates_expt3,2020.1.2,Win32,60,NaN,NaN,NaN,NaN,NaN,NaN,NaN,,NaN,NaN,NaN,NaN,NaN,NaN,,NaN,NaN,NaN,NaN,NaN,NaN,"",,NaN,4,0,4,0,1,3,200,0,200,0,1,199,,NaN,200,0,200,0,1,199,,NaN,,NaN,,NaN
NaN,NaN,NaN,NaN,NaN,"",NaN,NaN,"",NaN,NaN,1,1,33,3,95,74,5,0.05,0.1,0.15,0.15,95,74,5,0.05,0.1,0.15,0,4,0,0,5,5,978,29,0,0,0,33,978,29,171,0,,NaN,NaN,NaN,NaN,NaN,NaN,43,1,2020-11-11_15h06.58.229,Pirates_expt3,2020.1.2,Win32,60,NaN,NaN,NaN,NaN,NaN,NaN,NaN,,NaN,NaN,NaN,NaN,NaN,NaN,,NaN,NaN,NaN,NaN,NaN,NaN,"",,NaN,4,0,4,0,1,3,200,0,200,0,1,199,,NaN,200,0,200,0,1,199,space,0.58,,NaN,,NaN
NaN,NaN,NaN,NaN,NaN,"",NaN,NaN,"",NaN,NaN,NaN,NaN,NaN,NaN,NaN,NaN,NaN,NaN,NaN,NaN,NaN,NaN,NaN,NaN,NaN,NaN,NaN,NaN,NaN,,NaN,NaN,NaN,NaN,NaN,,NaN,NaN,NaN,NaN,NaN,NaN,NaN,,NaN,NaN,NaN,NaN,NaN,NaN,43,1,2020-11-11_15h06.58.229,Pirates_expt3,2020.1.2,Win32,60,NaN,NaN,NaN,NaN,NaN,NaN,NaN,,NaN,NaN,NaN,NaN,NaN,NaN,,NaN,NaN,NaN,NaN,NaN,NaN,"",,NaN,NaN,NaN,NaN,NaN,NaN,NaN,NaN,NaN,NaN,NaN,NaN,NaN,,NaN,10,0,10,0,1,NaN,,NaN,,NaN,,NaN
NaN,NaN,NaN,NaN,NaN,"",NaN,NaN,"",NaN,NaN,1,1,33,3,95,74,3,0.05,0.1,0.15,0.15,95,74,3,0.05,0.1,0.15,2,3,0,0,3,3,978,29,space,0.78,0,33,978,29,171,0,,NaN,NaN,NaN,NaN,NaN,NaN,43,1,2020-11-11_15h06.58.229,Pirates_expt3,2020.1.2,Win32,60,NaN,NaN,NaN,NaN,NaN,NaN,NaN,,NaN,NaN,NaN,NaN,NaN,NaN,,NaN,NaN,NaN,NaN,NaN,NaN,"",,NaN,4,0,4,0,1,3,200,0,200,0,1,199,,NaN,200,0,200,0,1,199,,NaN,,NaN,,NaN
NaN,NaN,NaN,NaN,NaN,"",NaN,NaN,"",NaN,NaN,1,1,32,3,95,77,3,0.05,0.1,0.15,0.15,95,77,3,0.05,0.1,0.15,0,4,0,0,3,3,981,30,0,0,0,32,981,30,170,0,,NaN,NaN,NaN,NaN,NaN,NaN,43,1,2020-11-11_15h06.58.229,Pirates_expt3,2020.1.2,Win32,60,NaN,NaN,NaN,NaN,NaN,NaN,NaN,,NaN,NaN,NaN,NaN,NaN,NaN,,NaN,NaN,NaN,NaN,NaN,NaN,"",,NaN,4,0,4,0,1,3,200,0,200,0,1,199,,NaN,200,0,200,0,1,199,space,0.78,,NaN,,NaN
NaN,NaN,NaN,NaN,NaN,"",NaN,NaN,"",NaN,NaN,NaN,NaN,NaN,NaN,NaN,NaN,NaN,NaN,NaN,NaN,NaN,NaN,NaN,NaN,NaN,NaN,NaN,NaN,NaN,,NaN,NaN,NaN,NaN,NaN,,NaN,NaN,NaN,NaN,NaN,NaN,NaN,,NaN,NaN,NaN,NaN,NaN,NaN,43,1,2020-11-11_15h06.58.229,Pirates_expt3,2020.1.2,Win32,60,NaN,NaN,NaN,NaN,NaN,NaN,NaN,,NaN,NaN,NaN,NaN,NaN,NaN,,NaN,NaN,NaN,NaN,NaN,NaN,"",,NaN,NaN,NaN,NaN,NaN,NaN,NaN,NaN,NaN,NaN,NaN,NaN,NaN,,NaN,11,0,11,0,1,NaN,,NaN,,NaN,,NaN
NaN,NaN,NaN,NaN,NaN,"",NaN,NaN,"",NaN,NaN,1,1,32,3,95,77,1,0.05,0.1,0.15,0.15,95,77,1,0.05,0.1,0.15,2,3,0,0,1,1,981,30,space,2.005,0,32,981,30,170,0,,NaN,NaN,NaN,NaN,NaN,NaN,43,1,2020-11-11_15h06.58.229,Pirates_expt3,2020.1.2,Win32,60,NaN,NaN,NaN,NaN,NaN,NaN,NaN,,NaN,NaN,NaN,NaN,NaN,NaN,,NaN,NaN,NaN,NaN,NaN,NaN,"",,NaN,4,0,4,0,1,3,200,0,200,0,1,199,,NaN,200,0,200,0,1,199,,NaN,,NaN,,NaN
NaN,NaN,NaN,NaN,NaN,"",NaN,NaN,"",NaN,NaN,1,1,31,3,95,79,1,0.05,0.1,0.15,0.15,95,79,1,0.05,0.1,0.15,0,4,0,0,1,1,983,31,0,0,0,31,983,31,169,0,,NaN,NaN,NaN,NaN,NaN,NaN,43,1,2020-11-11_15h06.58.229,Pirates_expt3,2020.1.2,Win32,60,NaN,NaN,NaN,NaN,NaN,NaN,NaN,,NaN,NaN,NaN,NaN,NaN,NaN,,NaN,NaN,NaN,NaN,NaN,NaN,"",,NaN,4,0,4,0,1,3,200,0,200,0,1,199,,NaN,200,0,200,0,1,199,space,2.005,,NaN,,NaN
NaN,NaN,NaN,NaN,NaN,"",NaN,NaN,"",NaN,NaN,NaN,NaN,NaN,NaN,NaN,NaN,NaN,NaN,NaN,NaN,NaN,NaN,NaN,NaN,NaN,NaN,NaN,NaN,NaN,,NaN,NaN,NaN,NaN,NaN,,NaN,NaN,NaN,NaN,NaN,NaN,NaN,,NaN,NaN,NaN,NaN,NaN,NaN,43,1,2020-11-11_15h06.58.229,Pirates_expt3,2020.1.2,Win32,60,NaN,NaN,NaN,NaN,NaN,NaN,NaN,,NaN,NaN,NaN,NaN,NaN,NaN,,NaN,NaN,NaN,NaN,NaN,NaN,"",,NaN,NaN,NaN,NaN,NaN,NaN,NaN,NaN,NaN,NaN,NaN,NaN,NaN,,NaN,12,0,12,0,1,NaN,,NaN,,NaN,,NaN
NaN,NaN,NaN,NaN,NaN,"",NaN,NaN,"",NaN,NaN,1,1,31,3,95,79,0,0.05,0.1,0.15,0.15,95,79,0,0.05,0.1,0.15,2,3,0,0,0,0,983,31,space,0.955,0,31,983,31,169,0,,NaN,NaN,NaN,NaN,NaN,NaN,43,1,2020-11-11_15h06.58.229,Pirates_expt3,2020.1.2,Win32,60,NaN,NaN,NaN,NaN,NaN,NaN,NaN,,NaN,NaN,NaN,NaN,NaN,NaN,,NaN,NaN,NaN,NaN,NaN,NaN,"",,NaN,4,0,4,0,1,3,200,0,200,0,1,199,,NaN,200,0,200,0,1,199,,NaN,,NaN,,NaN
NaN,NaN,NaN,NaN,NaN,"",NaN,NaN,"",NaN,NaN,1,1,30,3,95,81,0,0.05,0.1,0.15,0.15,95,81,0,0.05,0.1,0.15,0,4,0,0,0,0,984,32,0,0,0,30,984,32,168,0,,NaN,NaN,NaN,NaN,NaN,NaN,43,1,2020-11-11_15h06.58.229,Pirates_expt3,2020.1.2,Win32,60,NaN,NaN,NaN,NaN,NaN,NaN,NaN,,NaN,NaN,NaN,NaN,NaN,NaN,,NaN,NaN,NaN,NaN,NaN,NaN,"",,NaN,4,0,4,0,1,3,200,0,200,0,1,199,,NaN,200,0,200,0,1,199,space,0.955,,NaN,,NaN
NaN,NaN,NaN,NaN,NaN,"",NaN,NaN,"",NaN,NaN,NaN,NaN,NaN,NaN,NaN,NaN,NaN,NaN,NaN,NaN,NaN,NaN,NaN,NaN,NaN,NaN,NaN,NaN,NaN,,NaN,NaN,NaN,NaN,NaN,,NaN,NaN,NaN,NaN,NaN,NaN,NaN,,NaN,NaN,NaN,NaN,NaN,NaN,43,1,2020-11-11_15h06.58.229,Pirates_expt3,2020.1.2,Win32,60,NaN,NaN,NaN,NaN,NaN,NaN,NaN,,NaN,NaN,NaN,NaN,NaN,NaN,,NaN,NaN,NaN,NaN,NaN,NaN,"",,NaN,NaN,NaN,NaN,NaN,NaN,NaN,NaN,NaN,NaN,NaN,NaN,NaN,,NaN,13,0,13,0,1,NaN,,NaN,,NaN,,NaN
NaN,NaN,NaN,NaN,NaN,"",NaN,NaN,"",NaN,NaN,1,1,30,3,95,81,0,0.05,0.1,0.15,0.15,95,81,0,0.05,0.1,0.15,2,3,0,0,0,0,984,32,space,0.87,0,30,984,32,168,0,,NaN,NaN,NaN,NaN,NaN,NaN,43,1,2020-11-11_15h06.58.229,Pirates_expt3,2020.1.2,Win32,60,NaN,NaN,NaN,NaN,NaN,NaN,NaN,,NaN,NaN,NaN,NaN,NaN,NaN,,NaN,NaN,NaN,NaN,NaN,NaN,"",,NaN,4,0,4,0,1,3,200,0,200,0,1,199,,NaN,200,0,200,0,1,199,,NaN,,NaN,,NaN
NaN,NaN,NaN,NaN,NaN,"",NaN,NaN,"",NaN,NaN,1,1,29,3,96,83,0,0.05,0.1,0.15,0.15,96,83,0,0.05,0.1,0.15,0,4,0,0,0,0,985,33,0,0,0,29,985,33,167,0,,NaN,NaN,NaN,NaN,NaN,NaN,43,1,2020-11-11_15h06.58.229,Pirates_expt3,2020.1.2,Win32,60,NaN,NaN,NaN,NaN,NaN,NaN,NaN,,NaN,NaN,NaN,NaN,NaN,NaN,,NaN,NaN,NaN,NaN,NaN,NaN,"",,NaN,4,0,4,0,1,3,200,0,200,0,1,199,,NaN,200,0,200,0,1,199,space,0.87,,NaN,,NaN
NaN,NaN,NaN,NaN,NaN,"",NaN,NaN,"",NaN,NaN,NaN,NaN,NaN,NaN,NaN,NaN,NaN,NaN,NaN,NaN,NaN,NaN,NaN,NaN,NaN,NaN,NaN,NaN,NaN,,NaN,NaN,NaN,NaN,NaN,,NaN,NaN,NaN,NaN,NaN,NaN,NaN,,NaN,NaN,NaN,NaN,NaN,NaN,43,1,2020-11-11_15h06.58.229,Pirates_expt3,2020.1.2,Win32,60,NaN,NaN,NaN,NaN,NaN,NaN,NaN,,NaN,NaN,NaN,NaN,NaN,NaN,,NaN,NaN,NaN,NaN,NaN,NaN,"",,NaN,NaN,NaN,NaN,NaN,NaN,NaN,NaN,NaN,NaN,NaN,NaN,NaN,,NaN,14,0,14,0,1,NaN,,NaN,,NaN,,NaN
NaN,NaN,NaN,NaN,NaN,"",NaN,NaN,"",NaN,NaN,1,1,29,3,96,83,0,0.05,0.1,0.15,0.15,96,83,0,0.05,0.1,0.15,2,3,0,0,0,0,985,33,space,0.47,0,29,985,33,167,0,,NaN,NaN,NaN,NaN,NaN,NaN,43,1,2020-11-11_15h06.58.229,Pirates_expt3,2020.1.2,Win32,60,NaN,NaN,NaN,NaN,NaN,NaN,NaN,,NaN,NaN,NaN,NaN,NaN,NaN,,NaN,NaN,NaN,NaN,NaN,NaN,"",,NaN,4,0,4,0,1,3,200,0,200,0,1,199,,NaN,200,0,200,0,1,199,,NaN,,NaN,,NaN
NaN,NaN,NaN,NaN,NaN,"",NaN,NaN,"",NaN,NaN,1,1,28,3,96,85,0,0.05,0.1,0.15,0.15,96,85,0,0.05,0.1,0.15,0,4,0,0,0,0,985,34,0,0,0,28,985,34,166,0,,NaN,NaN,NaN,NaN,NaN,NaN,43,1,2020-11-11_15h06.58.229,Pirates_expt3,2020.1.2,Win32,60,NaN,NaN,NaN,NaN,NaN,NaN,NaN,,NaN,NaN,NaN,NaN,NaN,NaN,,NaN,NaN,NaN,NaN,NaN,NaN,"",,NaN,4,0,4,0,1,3,200,0,200,0,1,199,,NaN,200,0,200,0,1,199,space,0.47,,NaN,,NaN
NaN,NaN,NaN,NaN,NaN,"",NaN,NaN,"",NaN,NaN,NaN,NaN,NaN,NaN,NaN,NaN,NaN,NaN,NaN,NaN,NaN,NaN,NaN,NaN,NaN,NaN,NaN,NaN,NaN,,NaN,NaN,NaN,NaN,NaN,,NaN,NaN,NaN,NaN,NaN,NaN,NaN,,NaN,NaN,NaN,NaN,NaN,NaN,43,1,2020-11-11_15h06.58.229,Pirates_expt3,2020.1.2,Win32,60,NaN,NaN,NaN,NaN,NaN,NaN,NaN,,NaN,NaN,NaN,NaN,NaN,NaN,,NaN,NaN,NaN,NaN,NaN,NaN,"",,NaN,NaN,NaN,NaN,NaN,NaN,NaN,NaN,NaN,NaN,NaN,NaN,NaN,,NaN,15,0,15,0,1,NaN,,NaN,,NaN,,NaN
NaN,NaN,NaN,NaN,NaN,"",NaN,NaN,"",NaN,NaN,1,1,28,3,96,85,0,0.05,0.1,0.15,0.15,96,85,0,0.05,0.1,0.15,3,3,0,0,0,0,985,34,s,0.335,16,28,985,34,166,0,,NaN,NaN,NaN,NaN,NaN,NaN,43,1,2020-11-11_15h06.58.229,Pirates_expt3,2020.1.2,Win32,60,NaN,NaN,NaN,NaN,NaN,NaN,NaN,,NaN,NaN,NaN,NaN,NaN,NaN,,NaN,NaN,NaN,NaN,NaN,NaN,"",,NaN,4,0,4,0,1,3,200,0,200,0,1,199,,NaN,200,0,200,0,1,199,,NaN,,NaN,,NaN
NaN,NaN,NaN,NaN,NaN,"",NaN,NaN,"",NaN,NaN,1,1,28,3,96,86,15,0.05,0.1,0.15,0.15,96,86,15,0.05,0.1,0.15,0,4,0,0,15,0,985,35,0,0,0,28,985,35,165,51.416,,NaN,NaN,NaN,NaN,NaN,NaN,43,1,2020-11-11_15h06.58.229,Pirates_expt3,2020.1.2,Win32,60,NaN,NaN,NaN,NaN,NaN,NaN,NaN,,NaN,NaN,NaN,NaN,NaN,NaN,,NaN,NaN,NaN,NaN,NaN,NaN,"",,NaN,4,0,4,0,1,3,200,0,200,0,1,199,,NaN,200,0,200,0,1,199,s,0.335,,NaN,,NaN
NaN,NaN,NaN,NaN,NaN,"",NaN,NaN,"",NaN,NaN,NaN,NaN,NaN,NaN,NaN,NaN,NaN,NaN,NaN,NaN,NaN,NaN,NaN,NaN,NaN,NaN,NaN,NaN,NaN,,NaN,NaN,NaN,NaN,NaN,,NaN,NaN,NaN,NaN,NaN,NaN,NaN,,NaN,NaN,NaN,NaN,NaN,NaN,43,1,2020-11-11_15h06.58.229,Pirates_expt3,2020.1.2,Win32,60,NaN,NaN,NaN,NaN,NaN,NaN,NaN,,NaN,NaN,NaN,NaN,NaN,NaN,,NaN,NaN,NaN,NaN,NaN,NaN,"",,NaN,NaN,NaN,NaN,NaN,NaN,NaN,1,0,1,0,1,NaN,,NaN,NaN,NaN,NaN,NaN,NaN,NaN,,NaN,,NaN,,NaN
NaN,NaN,NaN,NaN,NaN,"",NaN,NaN,"",NaN,NaN,1,1,28,1,96,86,15,0.05,0.1,0.15,0.05,96,86,15,0.05,0.1,0.15,1,1,f,1.74,0,0,985,36,N/A,0,0,28,985,36,164,0,,NaN,NaN,NaN,NaN,NaN,NaN,43,1,2020-11-11_15h06.58.229,Pirates_expt3,2020.1.2,Win32,60,NaN,NaN,NaN,NaN,NaN,NaN,NaN,,NaN,NaN,NaN,NaN,NaN,NaN,,NaN,NaN,NaN,NaN,NaN,NaN,"",,NaN,4,0,4,0,1,3,200,0,200,0,1,199,,NaN,NaN,NaN,NaN,NaN,NaN,NaN,,NaN,,NaN,,NaN
NaN,NaN,NaN,NaN,NaN,"",NaN,NaN,"",NaN,NaN,1,1,28,1,96,87,27,0.05,0.1,0.15,0.05,96,87,27,0.05,0.1,0.15,0,2,0,0,0,0,985,36,N/A,0,0,28,985,36,164,0,,NaN,NaN,NaN,NaN,NaN,NaN,43,1,2020-11-11_15h06.58.229,Pirates_expt3,2020.1.2,Win32,60,NaN,NaN,NaN,NaN,NaN,NaN,NaN,,NaN,NaN,NaN,NaN,NaN,NaN,,NaN,NaN,NaN,NaN,NaN,NaN,"",,NaN,4,0,4,0,1,3,200,0,200,0,1,199,f,1.74,NaN,NaN,NaN,NaN,NaN,NaN,,NaN,,NaN,,NaN
NaN,NaN,NaN,NaN,NaN,"",NaN,NaN,"",NaN,NaN,1,1,27,1,96,87,27,0.05,0.1,0.15,0.05,96,87,27,0.05,0.1,0.15,2,3,0,0,96,96,985,36,space,0.445,0,27,985,36,164,0,,NaN,NaN,NaN,NaN,NaN,NaN,43,1,2020-11-11_15h06.58.229,Pirates_expt3,2020.1.2,Win32,60,NaN,NaN,NaN,NaN,NaN,NaN,NaN,,NaN,NaN,NaN,NaN,NaN,NaN,,NaN,NaN,NaN,NaN,NaN,NaN,"",,NaN,4,0,4,0,1,3,200,0,200,0,1,199,,NaN,200,0,200,0,1,199,,NaN,,NaN,,NaN
NaN,NaN,NaN,NaN,NaN,"",NaN,NaN,"",NaN,NaN,1,1,29,1,96,89,38,0.05,0.1,0.15,0.05,96,89,38,0.05,0.1,0.15,0,4,0,0,96,96,1082,37,0,0,0,29,1082,37,163,0,,NaN,NaN,NaN,NaN,NaN,NaN,43,1,2020-11-11_15h06.58.229,Pirates_expt3,2020.1.2,Win32,60,NaN,NaN,NaN,NaN,NaN,NaN,NaN,,NaN,NaN,NaN,NaN,NaN,NaN,,NaN,NaN,NaN,NaN,NaN,NaN,"",,NaN,4,0,4,0,1,3,200,0,200,0,1,199,,NaN,200,0,200,0,1,199,space,0.445,,NaN,,NaN
NaN,NaN,NaN,NaN,NaN,"",NaN,NaN,"",NaN,NaN,NaN,NaN,NaN,NaN,NaN,NaN,NaN,NaN,NaN,NaN,NaN,NaN,NaN,NaN,NaN,NaN,NaN,NaN,NaN,,NaN,NaN,NaN,NaN,NaN,,NaN,NaN,NaN,NaN,NaN,NaN,NaN,,NaN,NaN,NaN,NaN,NaN,NaN,43,1,2020-11-11_15h06.58.229,Pirates_expt3,2020.1.2,Win32,60,NaN,NaN,NaN,NaN,NaN,NaN,NaN,,NaN,NaN,NaN,NaN,NaN,NaN,,NaN,NaN,NaN,NaN,NaN,NaN,"",,NaN,NaN,NaN,NaN,NaN,NaN,NaN,NaN,NaN,NaN,NaN,NaN,NaN,,NaN,0,0,0,0,1,NaN,,NaN,,NaN,,NaN
NaN,NaN,NaN,NaN,NaN,"",NaN,NaN,"",NaN,NaN,1,1,29,1,91,89,38,0.05,0.1,0.15,0.05,91,89,38,0.05,0.1,0.15,2,3,0,0,91,91,1082,37,space,0.02,0,29,1082,37,163,0,,NaN,NaN,NaN,NaN,NaN,NaN,43,1,2020-11-11_15h06.58.229,Pirates_expt3,2020.1.2,Win32,60,NaN,NaN,NaN,NaN,NaN,NaN,NaN,,NaN,NaN,NaN,NaN,NaN,NaN,,NaN,NaN,NaN,NaN,NaN,NaN,"",,NaN,4,0,4,0,1,3,200,0,200,0,1,199,,NaN,200,0,200,0,1,199,,NaN,,NaN,,NaN
NaN,NaN,NaN,NaN,NaN,"",NaN,NaN,"",NaN,NaN,1,1,30,1,91,90,47,0.05,0.1,0.15,0.05,91,90,47,0.05,0.1,0.15,0,4,0,0,91,91,1173,38,0,0,0,30,1173,38,162,0,,NaN,NaN,NaN,NaN,NaN,NaN,43,1,2020-11-11_15h06.58.229,Pirates_expt3,2020.1.2,Win32,60,NaN,NaN,NaN,NaN,NaN,NaN,NaN,,NaN,NaN,NaN,NaN,NaN,NaN,,NaN,NaN,NaN,NaN,NaN,NaN,"",,NaN,4,0,4,0,1,3,200,0,200,0,1,199,,NaN,200,0,200,0,1,199,space,0.02,,NaN,,NaN
NaN,NaN,NaN,NaN,NaN,"",NaN,NaN,"",NaN,NaN,NaN,NaN,NaN,NaN,NaN,NaN,NaN,NaN,NaN,NaN,NaN,NaN,NaN,NaN,NaN,NaN,NaN,NaN,NaN,,NaN,NaN,NaN,NaN,NaN,,NaN,NaN,NaN,NaN,NaN,NaN,NaN,,NaN,NaN,NaN,NaN,NaN,NaN,43,1,2020-11-11_15h06.58.229,Pirates_expt3,2020.1.2,Win32,60,NaN,NaN,NaN,NaN,NaN,NaN,NaN,,NaN,NaN,NaN,NaN,NaN,NaN,,NaN,NaN,NaN,NaN,NaN,NaN,"",,NaN,NaN,NaN,NaN,NaN,NaN,NaN,NaN,NaN,NaN,NaN,NaN,NaN,,NaN,1,0,1,0,1,NaN,,NaN,,NaN,,NaN
NaN,NaN,NaN,NaN,NaN,"",NaN,NaN,"",NaN,NaN,1,1,30,1,82,90,47,0.05,0.1,0.15,0.05,82,90,47,0.05,0.1,0.15,2,3,0,0,82,82,1173,38,space,0.02,0,30,1173,38,162,0,,NaN,NaN,NaN,NaN,NaN,NaN,43,1,2020-11-11_15h06.58.229,Pirates_expt3,2020.1.2,Win32,60,NaN,NaN,NaN,NaN,NaN,NaN,NaN,,NaN,NaN,NaN,NaN,NaN,NaN,,NaN,NaN,NaN,NaN,NaN,NaN,"",,NaN,4,0,4,0,1,3,200,0,200,0,1,199,,NaN,200,0,200,0,1,199,,NaN,,NaN,,NaN
NaN,NaN,NaN,NaN,NaN,"",NaN,NaN,"",NaN,NaN,1,1,32,1,82,91,55,0.05,0.1,0.15,0.05,82,91,55,0.05,0.1,0.15,0,4,0,0,82,82,1256,39,0,0,0,32,1256,39,161,0,,NaN,NaN,NaN,NaN,NaN,NaN,43,1,2020-11-11_15h06.58.229,Pirates_expt3,2020.1.2,Win32,60,NaN,NaN,NaN,NaN,NaN,NaN,NaN,,NaN,NaN,NaN,NaN,NaN,NaN,,NaN,NaN,NaN,NaN,NaN,NaN,"",,NaN,4,0,4,0,1,3,200,0,200,0,1,199,,NaN,200,0,200,0,1,199,space,0.02,,NaN,,NaN
NaN,NaN,NaN,NaN,NaN,"",NaN,NaN,"",NaN,NaN,NaN,NaN,NaN,NaN,NaN,NaN,NaN,NaN,NaN,NaN,NaN,NaN,NaN,NaN,NaN,NaN,NaN,NaN,NaN,,NaN,NaN,NaN,NaN,NaN,,NaN,NaN,NaN,NaN,NaN,NaN,NaN,,NaN,NaN,NaN,NaN,NaN,NaN,43,1,2020-11-11_15h06.58.229,Pirates_expt3,2020.1.2,Win32,60,NaN,NaN,NaN,NaN,NaN,NaN,NaN,,NaN,NaN,NaN,NaN,NaN,NaN,,NaN,NaN,NaN,NaN,NaN,NaN,"",,NaN,NaN,NaN,NaN,NaN,NaN,NaN,NaN,NaN,NaN,NaN,NaN,NaN,,NaN,2,0,2,0,1,NaN,,NaN,,NaN,,NaN
NaN,NaN,NaN,NaN,NaN,"",NaN,NaN,"",NaN,NaN,1,1,32,1,71,91,55,0.05,0.1,0.15,0.05,71,91,55,0.05,0.1,0.15,2,3,0,0,71,71,1256,39,space,0.025,0,32,1256,39,161,0,,NaN,NaN,NaN,NaN,NaN,NaN,43,1,2020-11-11_15h06.58.229,Pirates_expt3,2020.1.2,Win32,60,NaN,NaN,NaN,NaN,NaN,NaN,NaN,,NaN,NaN,NaN,NaN,NaN,NaN,,NaN,NaN,NaN,NaN,NaN,NaN,"",,NaN,4,0,4,0,1,3,200,0,200,0,1,199,,NaN,200,0,200,0,1,199,,NaN,,NaN,,NaN
NaN,NaN,NaN,NaN,NaN,"",NaN,NaN,"",NaN,NaN,1,1,33,1,71,92,62,0.05,0.1,0.15,0.05,71,92,62,0.05,0.1,0.15,0,4,0,0,71,71,1327,40,0,0,0,33,1327,40,160,0,,NaN,NaN,NaN,NaN,NaN,NaN,43,1,2020-11-11_15h06.58.229,Pirates_expt3,2020.1.2,Win32,60,NaN,NaN,NaN,NaN,NaN,NaN,NaN,,NaN,NaN,NaN,NaN,NaN,NaN,,NaN,NaN,NaN,NaN,NaN,NaN,"",,NaN,4,0,4,0,1,3,200,0,200,0,1,199,,NaN,200,0,200,0,1,199,space,0.025,,NaN,,NaN
NaN,NaN,NaN,NaN,NaN,"",NaN,NaN,"",NaN,NaN,NaN,NaN,NaN,NaN,NaN,NaN,NaN,NaN,NaN,NaN,NaN,NaN,NaN,NaN,NaN,NaN,NaN,NaN,NaN,,NaN,NaN,NaN,NaN,NaN,,NaN,NaN,NaN,NaN,NaN,NaN,NaN,,NaN,NaN,NaN,NaN,NaN,NaN,43,1,2020-11-11_15h06.58.229,Pirates_expt3,2020.1.2,Win32,60,NaN,NaN,NaN,NaN,NaN,NaN,NaN,,NaN,NaN,NaN,NaN,NaN,NaN,,NaN,NaN,NaN,NaN,NaN,NaN,"",,NaN,NaN,NaN,NaN,NaN,NaN,NaN,NaN,NaN,NaN,NaN,NaN,NaN,,NaN,3,0,3,0,1,NaN,,NaN,,NaN,,NaN
NaN,NaN,NaN,NaN,NaN,"",NaN,NaN,"",NaN,NaN,1,1,33,1,57,92,62,0.05,0.1,0.15,0.05,57,92,62,0.05,0.1,0.15,2,3,0,0,57,57,1327,40,space,0.075,0,33,1327,40,160,0,,NaN,NaN,NaN,NaN,NaN,NaN,43,1,2020-11-11_15h06.58.229,Pirates_expt3,2020.1.2,Win32,60,NaN,NaN,NaN,NaN,NaN,NaN,NaN,,NaN,NaN,NaN,NaN,NaN,NaN,,NaN,NaN,NaN,NaN,NaN,NaN,"",,NaN,4,0,4,0,1,3,200,0,200,0,1,199,,NaN,200,0,200,0,1,199,,NaN,,NaN,,NaN
NaN,NaN,NaN,NaN,NaN,"",NaN,NaN,"",NaN,NaN,1,1,33,1,57,92,67,0.05,0.1,0.15,0.05,57,92,67,0.05,0.1,0.15,0,4,0,0,57,57,1385,41,0,0,0,33,1385,41,159,0,,NaN,NaN,NaN,NaN,NaN,NaN,43,1,2020-11-11_15h06.58.229,Pirates_expt3,2020.1.2,Win32,60,NaN,NaN,NaN,NaN,NaN,NaN,NaN,,NaN,NaN,NaN,NaN,NaN,NaN,,NaN,NaN,NaN,NaN,NaN,NaN,"",,NaN,4,0,4,0,1,3,200,0,200,0,1,199,,NaN,200,0,200,0,1,199,space,0.075,,NaN,,NaN
NaN,NaN,NaN,NaN,NaN,"",NaN,NaN,"",NaN,NaN,NaN,NaN,NaN,NaN,NaN,NaN,NaN,NaN,NaN,NaN,NaN,NaN,NaN,NaN,NaN,NaN,NaN,NaN,NaN,,NaN,NaN,NaN,NaN,NaN,,NaN,NaN,NaN,NaN,NaN,NaN,NaN,,NaN,NaN,NaN,NaN,NaN,NaN,43,1,2020-11-11_15h06.58.229,Pirates_expt3,2020.1.2,Win32,60,NaN,NaN,NaN,NaN,NaN,NaN,NaN,,NaN,NaN,NaN,NaN,NaN,NaN,,NaN,NaN,NaN,NaN,NaN,NaN,"",,NaN,NaN,NaN,NaN,NaN,NaN,NaN,NaN,NaN,NaN,NaN,NaN,NaN,,NaN,4,0,4,0,1,NaN,,NaN,,NaN,,NaN
NaN,NaN,NaN,NaN,NaN,"",NaN,NaN,"",NaN,NaN,1,1,33,1,44,92,67,0.05,0.1,0.15,0.05,44,92,67,0.05,0.1,0.15,2,3,0,0,44,44,1385,41,space,0.12,0,33,1385,41,159,0,,NaN,NaN,NaN,NaN,NaN,NaN,43,1,2020-11-11_15h06.58.229,Pirates_expt3,2020.1.2,Win32,60,NaN,NaN,NaN,NaN,NaN,NaN,NaN,,NaN,NaN,NaN,NaN,NaN,NaN,,NaN,NaN,NaN,NaN,NaN,NaN,"",,NaN,4,0,4,0,1,3,200,0,200,0,1,199,,NaN,200,0,200,0,1,199,,NaN,,NaN,,NaN
NaN,NaN,NaN,NaN,NaN,"",NaN,NaN,"",NaN,NaN,1,1,34,1,44,93,72,0.05,0.1,0.15,0.05,44,93,72,0.05,0.1,0.15,0,4,0,0,44,44,1430,42,0,0,0,34,1430,42,158,0,,NaN,NaN,NaN,NaN,NaN,NaN,43,1,2020-11-11_15h06.58.229,Pirates_expt3,2020.1.2,Win32,60,NaN,NaN,NaN,NaN,NaN,NaN,NaN,,NaN,NaN,NaN,NaN,NaN,NaN,,NaN,NaN,NaN,NaN,NaN,NaN,"",,NaN,4,0,4,0,1,3,200,0,200,0,1,199,,NaN,200,0,200,0,1,199,space,0.12,,NaN,,NaN
NaN,NaN,NaN,NaN,NaN,"",NaN,NaN,"",NaN,NaN,NaN,NaN,NaN,NaN,NaN,NaN,NaN,NaN,NaN,NaN,NaN,NaN,NaN,NaN,NaN,NaN,NaN,NaN,NaN,,NaN,NaN,NaN,NaN,NaN,,NaN,NaN,NaN,NaN,NaN,NaN,NaN,,NaN,NaN,NaN,NaN,NaN,NaN,43,1,2020-11-11_15h06.58.229,Pirates_expt3,2020.1.2,Win32,60,NaN,NaN,NaN,NaN,NaN,NaN,NaN,,NaN,NaN,NaN,NaN,NaN,NaN,,NaN,NaN,NaN,NaN,NaN,NaN,"",,NaN,NaN,NaN,NaN,NaN,NaN,NaN,NaN,NaN,NaN,NaN,NaN,NaN,,NaN,5,0,5,0,1,NaN,,NaN,,NaN,,NaN
NaN,NaN,NaN,NaN,NaN,"",NaN,NaN,"",NaN,NaN,1,1,34,1,32,93,72,0.05,0.1,0.15,0.05,32,93,72,0.05,0.1,0.15,2,3,0,0,32,32,1430,42,space,0.055,0,34,1430,42,158,0,,NaN,NaN,NaN,NaN,NaN,NaN,43,1,2020-11-11_15h06.58.229,Pirates_expt3,2020.1.2,Win32,60,NaN,NaN,NaN,NaN,NaN,NaN,NaN,,NaN,NaN,NaN,NaN,NaN,NaN,,NaN,NaN,NaN,NaN,NaN,NaN,"",,NaN,4,0,4,0,1,3,200,0,200,0,1,199,,NaN,200,0,200,0,1,199,,NaN,,NaN,,NaN
NaN,NaN,NaN,NaN,NaN,"",NaN,NaN,"",NaN,NaN,1,1,34,1,32,94,76,0.05,0.1,0.15,0.05,32,94,76,0.05,0.1,0.15,0,4,0,0,32,32,1463,43,0,0,0,34,1463,43,157,0,,NaN,NaN,NaN,NaN,NaN,NaN,43,1,2020-11-11_15h06.58.229,Pirates_expt3,2020.1.2,Win32,60,NaN,NaN,NaN,NaN,NaN,NaN,NaN,,NaN,NaN,NaN,NaN,NaN,NaN,,NaN,NaN,NaN,NaN,NaN,NaN,"",,NaN,4,0,4,0,1,3,200,0,200,0,1,199,,NaN,200,0,200,0,1,199,space,0.055,,NaN,,NaN
NaN,NaN,NaN,NaN,NaN,"",NaN,NaN,"",NaN,NaN,NaN,NaN,NaN,NaN,NaN,NaN,NaN,NaN,NaN,NaN,NaN,NaN,NaN,NaN,NaN,NaN,NaN,NaN,NaN,,NaN,NaN,NaN,NaN,NaN,,NaN,NaN,NaN,NaN,NaN,NaN,NaN,,NaN,NaN,NaN,NaN,NaN,NaN,43,1,2020-11-11_15h06.58.229,Pirates_expt3,2020.1.2,Win32,60,NaN,NaN,NaN,NaN,NaN,NaN,NaN,,NaN,NaN,NaN,NaN,NaN,NaN,,NaN,NaN,NaN,NaN,NaN,NaN,"",,NaN,NaN,NaN,NaN,NaN,NaN,NaN,NaN,NaN,NaN,NaN,NaN,NaN,,NaN,6,0,6,0,1,NaN,,NaN,,NaN,,NaN
NaN,NaN,NaN,NaN,NaN,"",NaN,NaN,"",NaN,NaN,1,1,34,1,22,94,76,0.05,0.1,0.15,0.05,22,94,76,0.05,0.1,0.15,2,3,0,0,22,22,1463,43,space,0.07,0,34,1463,43,157,0,,NaN,NaN,NaN,NaN,NaN,NaN,43,1,2020-11-11_15h06.58.229,Pirates_expt3,2020.1.2,Win32,60,NaN,NaN,NaN,NaN,NaN,NaN,NaN,,NaN,NaN,NaN,NaN,NaN,NaN,,NaN,NaN,NaN,NaN,NaN,NaN,"",,NaN,4,0,4,0,1,3,200,0,200,0,1,199,,NaN,200,0,200,0,1,199,,NaN,,NaN,,NaN
NaN,NaN,NaN,NaN,NaN,"",NaN,NaN,"",NaN,NaN,1,1,33,1,22,94,80,0.05,0.1,0.15,0.05,22,94,80,0.05,0.1,0.15,0,4,0,0,22,22,1486,44,0,0,0,33,1486,44,156,0,,NaN,NaN,NaN,NaN,NaN,NaN,43,1,2020-11-11_15h06.58.229,Pirates_expt3,2020.1.2,Win32,60,NaN,NaN,NaN,NaN,NaN,NaN,NaN,,NaN,NaN,NaN,NaN,NaN,NaN,,NaN,NaN,NaN,NaN,NaN,NaN,"",,NaN,4,0,4,0,1,3,200,0,200,0,1,199,,NaN,200,0,200,0,1,199,space,0.07,,NaN,,NaN
NaN,NaN,NaN,NaN,NaN,"",NaN,NaN,"",NaN,NaN,NaN,NaN,NaN,NaN,NaN,NaN,NaN,NaN,NaN,NaN,NaN,NaN,NaN,NaN,NaN,NaN,NaN,NaN,NaN,,NaN,NaN,NaN,NaN,NaN,,NaN,NaN,NaN,NaN,NaN,NaN,NaN,,NaN,NaN,NaN,NaN,NaN,NaN,43,1,2020-11-11_15h06.58.229,Pirates_expt3,2020.1.2,Win32,60,NaN,NaN,NaN,NaN,NaN,NaN,NaN,,NaN,NaN,NaN,NaN,NaN,NaN,,NaN,NaN,NaN,NaN,NaN,NaN,"",,NaN,NaN,NaN,NaN,NaN,NaN,NaN,NaN,NaN,NaN,NaN,NaN,NaN,,NaN,7,0,7,0,1,NaN,,NaN,,NaN,,NaN
NaN,NaN,NaN,NaN,NaN,"",NaN,NaN,"",NaN,NaN,1,1,33,1,15,94,80,0.05,0.1,0.15,0.05,15,94,80,0.05,0.1,0.15,2,3,0,0,15,15,1486,44,space,0.39,0,33,1486,44,156,0,,NaN,NaN,NaN,NaN,NaN,NaN,43,1,2020-11-11_15h06.58.229,Pirates_expt3,2020.1.2,Win32,60,NaN,NaN,NaN,NaN,NaN,NaN,NaN,,NaN,NaN,NaN,NaN,NaN,NaN,,NaN,NaN,NaN,NaN,NaN,NaN,"",,NaN,4,0,4,0,1,3,200,0,200,0,1,199,,NaN,200,0,200,0,1,199,,NaN,,NaN,,NaN
NaN,NaN,NaN,NaN,NaN,"",NaN,NaN,"",NaN,NaN,1,1,33,1,15,95,83,0.05,0.1,0.15,0.05,15,95,83,0.05,0.1,0.15,0,4,0,0,15,15,1501,45,0,0,0,33,1501,45,155,0,,NaN,NaN,NaN,NaN,NaN,NaN,43,1,2020-11-11_15h06.58.229,Pirates_expt3,2020.1.2,Win32,60,NaN,NaN,NaN,NaN,NaN,NaN,NaN,,NaN,NaN,NaN,NaN,NaN,NaN,,NaN,NaN,NaN,NaN,NaN,NaN,"",,NaN,4,0,4,0,1,3,200,0,200,0,1,199,,NaN,200,0,200,0,1,199,space,0.39,,NaN,,NaN
NaN,NaN,NaN,NaN,NaN,"",NaN,NaN,"",NaN,NaN,NaN,NaN,NaN,NaN,NaN,NaN,NaN,NaN,NaN,NaN,NaN,NaN,NaN,NaN,NaN,NaN,NaN,NaN,NaN,,NaN,NaN,NaN,NaN,NaN,,NaN,NaN,NaN,NaN,NaN,NaN,NaN,,NaN,NaN,NaN,NaN,NaN,NaN,43,1,2020-11-11_15h06.58.229,Pirates_expt3,2020.1.2,Win32,60,NaN,NaN,NaN,NaN,NaN,NaN,NaN,,NaN,NaN,NaN,NaN,NaN,NaN,,NaN,NaN,NaN,NaN,NaN,NaN,"",,NaN,NaN,NaN,NaN,NaN,NaN,NaN,NaN,NaN,NaN,NaN,NaN,NaN,,NaN,8,0,8,0,1,NaN,,NaN,,NaN,,NaN
NaN,NaN,NaN,NaN,NaN,"",NaN,NaN,"",NaN,NaN,1,1,33,1,9,95,83,0.05,0.1,0.15,0.05,9,95,83,0.05,0.1,0.15,2,3,0,0,9,9,1501,45,space,0.38,0,33,1501,45,155,0,,NaN,NaN,NaN,NaN,NaN,NaN,43,1,2020-11-11_15h06.58.229,Pirates_expt3,2020.1.2,Win32,60,NaN,NaN,NaN,NaN,NaN,NaN,NaN,,NaN,NaN,NaN,NaN,NaN,NaN,,NaN,NaN,NaN,NaN,NaN,NaN,"",,NaN,4,0,4,0,1,3,200,0,200,0,1,199,,NaN,200,0,200,0,1,199,,NaN,,NaN,,NaN
NaN,NaN,NaN,NaN,NaN,"",NaN,NaN,"",NaN,NaN,1,1,32,1,9,95,85,0.05,0.1,0.15,0.05,9,95,85,0.05,0.1,0.15,0,4,0,0,9,9,1511,46,0,0,0,32,1511,46,154,0,,NaN,NaN,NaN,NaN,NaN,NaN,43,1,2020-11-11_15h06.58.229,Pirates_expt3,2020.1.2,Win32,60,NaN,NaN,NaN,NaN,NaN,NaN,NaN,,NaN,NaN,NaN,NaN,NaN,NaN,,NaN,NaN,NaN,NaN,NaN,NaN,"",,NaN,4,0,4,0,1,3,200,0,200,0,1,199,,NaN,200,0,200,0,1,199,space,0.38,,NaN,,NaN
NaN,NaN,NaN,NaN,NaN,"",NaN,NaN,"",NaN,NaN,NaN,NaN,NaN,NaN,NaN,NaN,NaN,NaN,NaN,NaN,NaN,NaN,NaN,NaN,NaN,NaN,NaN,NaN,NaN,,NaN,NaN,NaN,NaN,NaN,,NaN,NaN,NaN,NaN,NaN,NaN,NaN,,NaN,NaN,NaN,NaN,NaN,NaN,43,1,2020-11-11_15h06.58.229,Pirates_expt3,2020.1.2,Win32,60,NaN,NaN,NaN,NaN,NaN,NaN,NaN,,NaN,NaN,NaN,NaN,NaN,NaN,,NaN,NaN,NaN,NaN,NaN,NaN,"",,NaN,NaN,NaN,NaN,NaN,NaN,NaN,NaN,NaN,NaN,NaN,NaN,NaN,,NaN,9,0,9,0,1,NaN,,NaN,,NaN,,NaN
NaN,NaN,NaN,NaN,NaN,"",NaN,NaN,"",NaN,NaN,1,1,32,1,5,95,85,0.05,0.1,0.15,0.05,5,95,85,0.05,0.1,0.15,3,3,0,0,5,5,1511,46,s,0.885,10,32,1511,46,154,0,,NaN,NaN,NaN,NaN,NaN,NaN,43,1,2020-11-11_15h06.58.229,Pirates_expt3,2020.1.2,Win32,60,NaN,NaN,NaN,NaN,NaN,NaN,NaN,,NaN,NaN,NaN,NaN,NaN,NaN,,NaN,NaN,NaN,NaN,NaN,NaN,"",,NaN,4,0,4,0,1,3,200,0,200,0,1,199,,NaN,200,0,200,0,1,199,,NaN,,NaN,,NaN
NaN,NaN,NaN,NaN,NaN,"",NaN,NaN,"",NaN,NaN,1,1,32,1,10,96,87,0.05,0.1,0.15,0.05,10,96,87,0.05,0.1,0.15,0,4,0,0,10,5,1511,47,0,0,0,32,1511,47,153,18.375,,NaN,NaN,NaN,NaN,NaN,NaN,43,1,2020-11-11_15h06.58.229,Pirates_expt3,2020.1.2,Win32,60,NaN,NaN,NaN,NaN,NaN,NaN,NaN,,NaN,NaN,NaN,NaN,NaN,NaN,,NaN,NaN,NaN,NaN,NaN,NaN,"",,NaN,4,0,4,0,1,3,200,0,200,0,1,199,,NaN,200,0,200,0,1,199,s,0.885,,NaN,,NaN
NaN,NaN,NaN,NaN,NaN,"",NaN,NaN,"",NaN,NaN,NaN,NaN,NaN,NaN,NaN,NaN,NaN,NaN,NaN,NaN,NaN,NaN,NaN,NaN,NaN,NaN,NaN,NaN,NaN,,NaN,NaN,NaN,NaN,NaN,,NaN,NaN,NaN,NaN,NaN,NaN,NaN,,NaN,NaN,NaN,NaN,NaN,NaN,43,1,2020-11-11_15h06.58.229,Pirates_expt3,2020.1.2,Win32,60,NaN,NaN,NaN,NaN,NaN,NaN,NaN,,NaN,NaN,NaN,NaN,NaN,NaN,,NaN,NaN,NaN,NaN,NaN,NaN,"",,NaN,NaN,NaN,NaN,NaN,NaN,NaN,2,0,2,0,1,NaN,,NaN,NaN,NaN,NaN,NaN,NaN,NaN,,NaN,,NaN,,NaN
NaN,NaN,NaN,NaN,NaN,"",NaN,NaN,"",NaN,NaN,1,1,32,2,10,96,87,0.05,0.1,0.15,0.1,10,96,87,0.05,0.1,0.15,1,1,j,1.98,0,0,1511,48,N/A,0,0,32,1511,48,152,0,,NaN,NaN,NaN,NaN,NaN,NaN,43,1,2020-11-11_15h06.58.229,Pirates_expt3,2020.1.2,Win32,60,NaN,NaN,NaN,NaN,NaN,NaN,NaN,,NaN,NaN,NaN,NaN,NaN,NaN,,NaN,NaN,NaN,NaN,NaN,NaN,"",,NaN,4,0,4,0,1,3,200,0,200,0,1,199,,NaN,NaN,NaN,NaN,NaN,NaN,NaN,,NaN,,NaN,,NaN
NaN,NaN,NaN,NaN,NaN,"",NaN,NaN,"",NaN,NaN,1,1,32,2,14,96,89,0.05,0.1,0.15,0.1,14,96,89,0.05,0.1,0.15,0,2,0,0,0,0,1511,48,N/A,0,0,32,1511,48,152,0,,NaN,NaN,NaN,NaN,NaN,NaN,43,1,2020-11-11_15h06.58.229,Pirates_expt3,2020.1.2,Win32,60,NaN,NaN,NaN,NaN,NaN,NaN,NaN,,NaN,NaN,NaN,NaN,NaN,NaN,,NaN,NaN,NaN,NaN,NaN,NaN,"",,NaN,4,0,4,0,1,3,200,0,200,0,1,199,j,1.98,NaN,NaN,NaN,NaN,NaN,NaN,,NaN,,NaN,,NaN
NaN,NaN,NaN,NaN,NaN,"",NaN,NaN,"",NaN,NaN,1,1,31,2,14,96,89,0.05,0.1,0.15,0.1,14,96,89,0.05,0.1,0.15,2,3,0,0,96,96,1511,48,space,0.855,0,31,1511,48,152,0,,NaN,NaN,NaN,NaN,NaN,NaN,43,1,2020-11-11_15h06.58.229,Pirates_expt3,2020.1.2,Win32,60,NaN,NaN,NaN,NaN,NaN,NaN,NaN,,NaN,NaN,NaN,NaN,NaN,NaN,,NaN,NaN,NaN,NaN,NaN,NaN,"",,NaN,4,0,4,0,1,3,200,0,200,0,1,199,,NaN,200,0,200,0,1,199,,NaN,,NaN,,NaN
NaN,NaN,NaN,NaN,NaN,"",NaN,NaN,"",NaN,NaN,1,1,32,2,19,96,91,0.05,0.1,0.15,0.1,19,96,91,0.05,0.1,0.15,0,4,0,0,96,96,1607,49,0,0,0,32,1607,49,151,0,,NaN,NaN,NaN,NaN,NaN,NaN,43,1,2020-11-11_15h06.58.229,Pirates_expt3,2020.1.2,Win32,60,NaN,NaN,NaN,NaN,NaN,NaN,NaN,,NaN,NaN,NaN,NaN,NaN,NaN,,NaN,NaN,NaN,NaN,NaN,NaN,"",,NaN,4,0,4,0,1,3,200,0,200,0,1,199,,NaN,200,0,200,0,1,199,space,0.855,,NaN,,NaN
NaN,NaN,NaN,NaN,NaN,"",NaN,NaN,"",NaN,NaN,NaN,NaN,NaN,NaN,NaN,NaN,NaN,NaN,NaN,NaN,NaN,NaN,NaN,NaN,NaN,NaN,NaN,NaN,NaN,,NaN,NaN,NaN,NaN,NaN,,NaN,NaN,NaN,NaN,NaN,NaN,NaN,,NaN,NaN,NaN,NaN,NaN,NaN,43,1,2020-11-11_15h06.58.229,Pirates_expt3,2020.1.2,Win32,60,NaN,NaN,NaN,NaN,NaN,NaN,NaN,,NaN,NaN,NaN,NaN,NaN,NaN,,NaN,NaN,NaN,NaN,NaN,NaN,"",,NaN,NaN,NaN,NaN,NaN,NaN,NaN,NaN,NaN,NaN,NaN,NaN,NaN,,NaN,0,0,0,0,1,NaN,,NaN,,NaN,,NaN
NaN,NaN,NaN,NaN,NaN,"",NaN,NaN,"",NaN,NaN,1,1,32,2,19,91,91,0.05,0.1,0.15,0.1,19,91,91,0.05,0.1,0.15,2,3,0,0,91,91,1607,49,space,0.06,0,32,1607,49,151,0,,NaN,NaN,NaN,NaN,NaN,NaN,43,1,2020-11-11_15h06.58.229,Pirates_expt3,2020.1.2,Win32,60,NaN,NaN,NaN,NaN,NaN,NaN,NaN,,NaN,NaN,NaN,NaN,NaN,NaN,,NaN,NaN,NaN,NaN,NaN,NaN,"",,NaN,4,0,4,0,1,3,200,0,200,0,1,199,,NaN,200,0,200,0,1,199,,NaN,,NaN,,NaN
NaN,NaN,NaN,NaN,NaN,"",NaN,NaN,"",NaN,NaN,1,1,33,2,23,91,92,0.05,0.1,0.15,0.1,23,91,92,0.05,0.1,0.15,0,4,0,0,91,91,1699,50,0,0,0,33,1699,50,150,0,,NaN,NaN,NaN,NaN,NaN,NaN,43,1,2020-11-11_15h06.58.229,Pirates_expt3,2020.1.2,Win32,60,NaN,NaN,NaN,NaN,NaN,NaN,NaN,,NaN,NaN,NaN,NaN,NaN,NaN,,NaN,NaN,NaN,NaN,NaN,NaN,"",,NaN,4,0,4,0,1,3,200,0,200,0,1,199,,NaN,200,0,200,0,1,199,space,0.06,,NaN,,NaN
NaN,NaN,NaN,NaN,NaN,"",NaN,NaN,"",NaN,NaN,NaN,NaN,NaN,NaN,NaN,NaN,NaN,NaN,NaN,NaN,NaN,NaN,NaN,NaN,NaN,NaN,NaN,NaN,NaN,,NaN,NaN,NaN,NaN,NaN,,NaN,NaN,NaN,NaN,NaN,NaN,NaN,,NaN,NaN,NaN,NaN,NaN,NaN,43,1,2020-11-11_15h06.58.229,Pirates_expt3,2020.1.2,Win32,60,NaN,NaN,NaN,NaN,NaN,NaN,NaN,,NaN,NaN,NaN,NaN,NaN,NaN,,NaN,NaN,NaN,NaN,NaN,NaN,"",,NaN,NaN,NaN,NaN,NaN,NaN,NaN,NaN,NaN,NaN,NaN,NaN,NaN,,NaN,1,0,1,0,1,NaN,,NaN,,NaN,,NaN
NaN,NaN,NaN,NaN,NaN,"",NaN,NaN,"",NaN,NaN,1,1,33,2,23,82,92,0.05,0.1,0.15,0.1,23,82,92,0.05,0.1,0.15,2,3,0,0,82,82,1699,50,space,0.115,0,33,1699,50,150,0,,NaN,NaN,NaN,NaN,NaN,NaN,43,1,2020-11-11_15h06.58.229,Pirates_expt3,2020.1.2,Win32,60,NaN,NaN,NaN,NaN,NaN,NaN,NaN,,NaN,NaN,NaN,NaN,NaN,NaN,,NaN,NaN,NaN,NaN,NaN,NaN,"",,NaN,4,0,4,0,1,3,200,0,200,0,1,199,,NaN,200,0,200,0,1,199,,NaN,,NaN,,NaN
NaN,NaN,NaN,NaN,NaN,"",NaN,NaN,"",NaN,NaN,1,1,34,2,27,82,93,0.05,0.1,0.15,0.1,27,82,93,0.05,0.1,0.15,0,4,0,0,82,82,1782,51,0,0,0,34,1782,51,149,0,,NaN,NaN,NaN,NaN,NaN,NaN,43,1,2020-11-11_15h06.58.229,Pirates_expt3,2020.1.2,Win32,60,NaN,NaN,NaN,NaN,NaN,NaN,NaN,,NaN,NaN,NaN,NaN,NaN,NaN,,NaN,NaN,NaN,NaN,NaN,NaN,"",,NaN,4,0,4,0,1,3,200,0,200,0,1,199,,NaN,200,0,200,0,1,199,space,0.115,,NaN,,NaN
NaN,NaN,NaN,NaN,NaN,"",NaN,NaN,"",NaN,NaN,NaN,NaN,NaN,NaN,NaN,NaN,NaN,NaN,NaN,NaN,NaN,NaN,NaN,NaN,NaN,NaN,NaN,NaN,NaN,,NaN,NaN,NaN,NaN,NaN,,NaN,NaN,NaN,NaN,NaN,NaN,NaN,,NaN,NaN,NaN,NaN,NaN,NaN,43,1,2020-11-11_15h06.58.229,Pirates_expt3,2020.1.2,Win32,60,NaN,NaN,NaN,NaN,NaN,NaN,NaN,,NaN,NaN,NaN,NaN,NaN,NaN,,NaN,NaN,NaN,NaN,NaN,NaN,"",,NaN,NaN,NaN,NaN,NaN,NaN,NaN,NaN,NaN,NaN,NaN,NaN,NaN,,NaN,2,0,2,0,1,NaN,,NaN,,NaN,,NaN
NaN,NaN,NaN,NaN,NaN,"",NaN,NaN,"",NaN,NaN,1,1,34,2,27,70,93,0.05,0.1,0.15,0.1,27,70,93,0.05,0.1,0.15,2,3,0,0,70,70,1782,51,space,0.17,0,34,1782,51,149,0,,NaN,NaN,NaN,NaN,NaN,NaN,43,1,2020-11-11_15h06.58.229,Pirates_expt3,2020.1.2,Win32,60,NaN,NaN,NaN,NaN,NaN,NaN,NaN,,NaN,NaN,NaN,NaN,NaN,NaN,,NaN,NaN,NaN,NaN,NaN,NaN,"",,NaN,4,0,4,0,1,3,200,0,200,0,1,199,,NaN,200,0,200,0,1,199,,NaN,,NaN,,NaN
NaN,NaN,NaN,NaN,NaN,"",NaN,NaN,"",NaN,NaN,1,1,35,2,30,70,94,0.05,0.1,0.15,0.1,30,70,94,0.05,0.1,0.15,0,4,0,0,70,70,1853,52,0,0,0,35,1853,52,148,0,,NaN,NaN,NaN,NaN,NaN,NaN,43,1,2020-11-11_15h06.58.229,Pirates_expt3,2020.1.2,Win32,60,NaN,NaN,NaN,NaN,NaN,NaN,NaN,,NaN,NaN,NaN,NaN,NaN,NaN,,NaN,NaN,NaN,NaN,NaN,NaN,"",,NaN,4,0,4,0,1,3,200,0,200,0,1,199,,NaN,200,0,200,0,1,199,space,0.17,,NaN,,NaN
NaN,NaN,NaN,NaN,NaN,"",NaN,NaN,"",NaN,NaN,NaN,NaN,NaN,NaN,NaN,NaN,NaN,NaN,NaN,NaN,NaN,NaN,NaN,NaN,NaN,NaN,NaN,NaN,NaN,,NaN,NaN,NaN,NaN,NaN,,NaN,NaN,NaN,NaN,NaN,NaN,NaN,,NaN,NaN,NaN,NaN,NaN,NaN,43,1,2020-11-11_15h06.58.229,Pirates_expt3,2020.1.2,Win32,60,NaN,NaN,NaN,NaN,NaN,NaN,NaN,,NaN,NaN,NaN,NaN,NaN,NaN,,NaN,NaN,NaN,NaN,NaN,NaN,"",,NaN,NaN,NaN,NaN,NaN,NaN,NaN,NaN,NaN,NaN,NaN,NaN,NaN,,NaN,3,0,3,0,1,NaN,,NaN,,NaN,,NaN
NaN,NaN,NaN,NaN,NaN,"",NaN,NaN,"",NaN,NaN,1,1,35,2,30,57,94,0.05,0.1,0.15,0.1,30,57,94,0.05,0.1,0.15,2,3,0,0,57,57,1853,52,space,0.645,0,35,1853,52,148,0,,NaN,NaN,NaN,NaN,NaN,NaN,43,1,2020-11-11_15h06.58.229,Pirates_expt3,2020.1.2,Win32,60,NaN,NaN,NaN,NaN,NaN,NaN,NaN,,NaN,NaN,NaN,NaN,NaN,NaN,,NaN,NaN,NaN,NaN,NaN,NaN,"",,NaN,4,0,4,0,1,3,200,0,200,0,1,199,,NaN,200,0,200,0,1,199,,NaN,,NaN,,NaN
NaN,NaN,NaN,NaN,NaN,"",NaN,NaN,"",NaN,NaN,1,1,36,2,34,57,95,0.05,0.1,0.15,0.1,34,57,95,0.05,0.1,0.15,0,4,0,0,57,57,1911,53,0,0,0,36,1911,53,147,0,,NaN,NaN,NaN,NaN,NaN,NaN,43,1,2020-11-11_15h06.58.229,Pirates_expt3,2020.1.2,Win32,60,NaN,NaN,NaN,NaN,NaN,NaN,NaN,,NaN,NaN,NaN,NaN,NaN,NaN,,NaN,NaN,NaN,NaN,NaN,NaN,"",,NaN,4,0,4,0,1,3,200,0,200,0,1,199,,NaN,200,0,200,0,1,199,space,0.645,,NaN,,NaN
NaN,NaN,NaN,NaN,NaN,"",NaN,NaN,"",NaN,NaN,NaN,NaN,NaN,NaN,NaN,NaN,NaN,NaN,NaN,NaN,NaN,NaN,NaN,NaN,NaN,NaN,NaN,NaN,NaN,,NaN,NaN,NaN,NaN,NaN,,NaN,NaN,NaN,NaN,NaN,NaN,NaN,,NaN,NaN,NaN,NaN,NaN,NaN,43,1,2020-11-11_15h06.58.229,Pirates_expt3,2020.1.2,Win32,60,NaN,NaN,NaN,NaN,NaN,NaN,NaN,,NaN,NaN,NaN,NaN,NaN,NaN,,NaN,NaN,NaN,NaN,NaN,NaN,"",,NaN,NaN,NaN,NaN,NaN,NaN,NaN,NaN,NaN,NaN,NaN,NaN,NaN,,NaN,4,0,4,0,1,NaN,,NaN,,NaN,,NaN
NaN,NaN,NaN,NaN,NaN,"",NaN,NaN,"",NaN,NaN,1,1,36,2,34,44,95,0.05,0.1,0.15,0.1,34,44,95,0.05,0.1,0.15,2,3,0,0,44,44,1911,53,space,0.405,0,36,1911,53,147,0,,NaN,NaN,NaN,NaN,NaN,NaN,43,1,2020-11-11_15h06.58.229,Pirates_expt3,2020.1.2,Win32,60,NaN,NaN,NaN,NaN,NaN,NaN,NaN,,NaN,NaN,NaN,NaN,NaN,NaN,,NaN,NaN,NaN,NaN,NaN,NaN,"",,NaN,4,0,4,0,1,3,200,0,200,0,1,199,,NaN,200,0,200,0,1,199,,NaN,,NaN,,NaN
NaN,NaN,NaN,NaN,NaN,"",NaN,NaN,"",NaN,NaN,1,1,36,2,37,44,96,0.05,0.1,0.15,0.1,37,44,96,0.05,0.1,0.15,0,4,0,0,44,44,1956,54,0,0,0,36,1956,54,146,0,,NaN,NaN,NaN,NaN,NaN,NaN,43,1,2020-11-11_15h06.58.229,Pirates_expt3,2020.1.2,Win32,60,NaN,NaN,NaN,NaN,NaN,NaN,NaN,,NaN,NaN,NaN,NaN,NaN,NaN,,NaN,NaN,NaN,NaN,NaN,NaN,"",,NaN,4,0,4,0,1,3,200,0,200,0,1,199,,NaN,200,0,200,0,1,199,space,0.405,,NaN,,NaN
NaN,NaN,NaN,NaN,NaN,"",NaN,NaN,"",NaN,NaN,NaN,NaN,NaN,NaN,NaN,NaN,NaN,NaN,NaN,NaN,NaN,NaN,NaN,NaN,NaN,NaN,NaN,NaN,NaN,,NaN,NaN,NaN,NaN,NaN,,NaN,NaN,NaN,NaN,NaN,NaN,NaN,,NaN,NaN,NaN,NaN,NaN,NaN,43,1,2020-11-11_15h06.58.229,Pirates_expt3,2020.1.2,Win32,60,NaN,NaN,NaN,NaN,NaN,NaN,NaN,,NaN,NaN,NaN,NaN,NaN,NaN,,NaN,NaN,NaN,NaN,NaN,NaN,"",,NaN,NaN,NaN,NaN,NaN,NaN,NaN,NaN,NaN,NaN,NaN,NaN,NaN,,NaN,5,0,5,0,1,NaN,,NaN,,NaN,,NaN
NaN,NaN,NaN,NaN,NaN,"",NaN,NaN,"",NaN,NaN,1,1,36,2,37,32,96,0.05,0.1,0.15,0.1,37,32,96,0.05,0.1,0.15,2,3,0,0,32,32,1956,54,space,0.02,0,36,1956,54,146,0,,NaN,NaN,NaN,NaN,NaN,NaN,43,1,2020-11-11_15h06.58.229,Pirates_expt3,2020.1.2,Win32,60,NaN,NaN,NaN,NaN,NaN,NaN,NaN,,NaN,NaN,NaN,NaN,NaN,NaN,,NaN,NaN,NaN,NaN,NaN,NaN,"",,NaN,4,0,4,0,1,3,200,0,200,0,1,199,,NaN,200,0,200,0,1,199,,NaN,,NaN,,NaN
NaN,NaN,NaN,NaN,NaN,"",NaN,NaN,"",NaN,NaN,1,1,36,2,40,32,96,0.05,0.1,0.15,0.1,40,32,96,0.05,0.1,0.15,0,4,0,0,32,32,1988,55,0,0,0,36,1988,55,145,0,,NaN,NaN,NaN,NaN,NaN,NaN,43,1,2020-11-11_15h06.58.229,Pirates_expt3,2020.1.2,Win32,60,NaN,NaN,NaN,NaN,NaN,NaN,NaN,,NaN,NaN,NaN,NaN,NaN,NaN,,NaN,NaN,NaN,NaN,NaN,NaN,"",,NaN,4,0,4,0,1,3,200,0,200,0,1,199,,NaN,200,0,200,0,1,199,space,0.02,,NaN,,NaN
NaN,NaN,NaN,NaN,NaN,"",NaN,NaN,"",NaN,NaN,NaN,NaN,NaN,NaN,NaN,NaN,NaN,NaN,NaN,NaN,NaN,NaN,NaN,NaN,NaN,NaN,NaN,NaN,NaN,,NaN,NaN,NaN,NaN,NaN,,NaN,NaN,NaN,NaN,NaN,NaN,NaN,,NaN,NaN,NaN,NaN,NaN,NaN,43,1,2020-11-11_15h06.58.229,Pirates_expt3,2020.1.2,Win32,60,NaN,NaN,NaN,NaN,NaN,NaN,NaN,,NaN,NaN,NaN,NaN,NaN,NaN,,NaN,NaN,NaN,NaN,NaN,NaN,"",,NaN,NaN,NaN,NaN,NaN,NaN,NaN,NaN,NaN,NaN,NaN,NaN,NaN,,NaN,6,0,6,0,1,NaN,,NaN,,NaN,,NaN
NaN,NaN,NaN,NaN,NaN,"",NaN,NaN,"",NaN,NaN,1,1,36,2,40,22,96,0.05,0.1,0.15,0.1,40,22,96,0.05,0.1,0.15,2,3,0,0,22,22,1988,55,space,0.51,0,36,1988,55,145,0,,NaN,NaN,NaN,NaN,NaN,NaN,43,1,2020-11-11_15h06.58.229,Pirates_expt3,2020.1.2,Win32,60,NaN,NaN,NaN,NaN,NaN,NaN,NaN,,NaN,NaN,NaN,NaN,NaN,NaN,,NaN,NaN,NaN,NaN,NaN,NaN,"",,NaN,4,0,4,0,1,3,200,0,200,0,1,199,,NaN,200,0,200,0,1,199,,NaN,,NaN,,NaN
NaN,NaN,NaN,NaN,NaN,"",NaN,NaN,"",NaN,NaN,1,1,35,2,43,22,97,0.05,0.1,0.15,0.1,43,22,97,0.05,0.1,0.15,0,4,0,0,22,22,2011,56,0,0,0,35,2011,56,144,0,,NaN,NaN,NaN,NaN,NaN,NaN,43,1,2020-11-11_15h06.58.229,Pirates_expt3,2020.1.2,Win32,60,NaN,NaN,NaN,NaN,NaN,NaN,NaN,,NaN,NaN,NaN,NaN,NaN,NaN,,NaN,NaN,NaN,NaN,NaN,NaN,"",,NaN,4,0,4,0,1,3,200,0,200,0,1,199,,NaN,200,0,200,0,1,199,space,0.51,,NaN,,NaN
NaN,NaN,NaN,NaN,NaN,"",NaN,NaN,"",NaN,NaN,NaN,NaN,NaN,NaN,NaN,NaN,NaN,NaN,NaN,NaN,NaN,NaN,NaN,NaN,NaN,NaN,NaN,NaN,NaN,,NaN,NaN,NaN,NaN,NaN,,NaN,NaN,NaN,NaN,NaN,NaN,NaN,,NaN,NaN,NaN,NaN,NaN,NaN,43,1,2020-11-11_15h06.58.229,Pirates_expt3,2020.1.2,Win32,60,NaN,NaN,NaN,NaN,NaN,NaN,NaN,,NaN,NaN,NaN,NaN,NaN,NaN,,NaN,NaN,NaN,NaN,NaN,NaN,"",,NaN,NaN,NaN,NaN,NaN,NaN,NaN,NaN,NaN,NaN,NaN,NaN,NaN,,NaN,7,0,7,0,1,NaN,,NaN,,NaN,,NaN
NaN,NaN,NaN,NaN,NaN,"",NaN,NaN,"",NaN,NaN,1,1,35,2,43,15,97,0.05,0.1,0.15,0.1,43,15,97,0.05,0.1,0.15,2,3,0,0,15,15,2011,56,space,1.925,0,35,2011,56,144,0,,NaN,NaN,NaN,NaN,NaN,NaN,43,1,2020-11-11_15h06.58.229,Pirates_expt3,2020.1.2,Win32,60,NaN,NaN,NaN,NaN,NaN,NaN,NaN,,NaN,NaN,NaN,NaN,NaN,NaN,,NaN,NaN,NaN,NaN,NaN,NaN,"",,NaN,4,0,4,0,1,3,200,0,200,0,1,199,,NaN,200,0,200,0,1,199,,NaN,,NaN,,NaN
NaN,NaN,NaN,NaN,NaN,"",NaN,NaN,"",NaN,NaN,1,1,35,2,46,15,97,0.05,0.1,0.15,0.1,46,15,97,0.05,0.1,0.15,0,4,0,0,15,15,2027,57,0,0,0,35,2027,57,143,0,,NaN,NaN,NaN,NaN,NaN,NaN,43,1,2020-11-11_15h06.58.229,Pirates_expt3,2020.1.2,Win32,60,NaN,NaN,NaN,NaN,NaN,NaN,NaN,,NaN,NaN,NaN,NaN,NaN,NaN,,NaN,NaN,NaN,NaN,NaN,NaN,"",,NaN,4,0,4,0,1,3,200,0,200,0,1,199,,NaN,200,0,200,0,1,199,space,1.925,,NaN,,NaN
NaN,NaN,NaN,NaN,NaN,"",NaN,NaN,"",NaN,NaN,NaN,NaN,NaN,NaN,NaN,NaN,NaN,NaN,NaN,NaN,NaN,NaN,NaN,NaN,NaN,NaN,NaN,NaN,NaN,,NaN,NaN,NaN,NaN,NaN,,NaN,NaN,NaN,NaN,NaN,NaN,NaN,,NaN,NaN,NaN,NaN,NaN,NaN,43,1,2020-11-11_15h06.58.229,Pirates_expt3,2020.1.2,Win32,60,NaN,NaN,NaN,NaN,NaN,NaN,NaN,,NaN,NaN,NaN,NaN,NaN,NaN,,NaN,NaN,NaN,NaN,NaN,NaN,"",,NaN,NaN,NaN,NaN,NaN,NaN,NaN,NaN,NaN,NaN,NaN,NaN,NaN,,NaN,8,0,8,0,1,NaN,,NaN,,NaN,,NaN
NaN,NaN,NaN,NaN,NaN,"",NaN,NaN,"",NaN,NaN,1,1,35,2,46,9,97,0.05,0.1,0.15,0.1,46,9,97,0.05,0.1,0.15,2,3,0,0,9,9,2027,57,space,7.84,0,35,2027,57,143,0,,NaN,NaN,NaN,NaN,NaN,NaN,43,1,2020-11-11_15h06.58.229,Pirates_expt3,2020.1.2,Win32,60,NaN,NaN,NaN,NaN,NaN,NaN,NaN,,NaN,NaN,NaN,NaN,NaN,NaN,,NaN,NaN,NaN,NaN,NaN,NaN,"",,NaN,4,0,4,0,1,3,200,0,200,0,1,199,,NaN,200,0,200,0,1,199,,NaN,,NaN,,NaN
NaN,NaN,NaN,NaN,NaN,"",NaN,NaN,"",NaN,NaN,1,1,35,2,49,9,97,0.05,0.1,0.15,0.1,49,9,97,0.05,0.1,0.15,0,4,0,0,9,9,2036,58,0,0,0,35,2036,58,142,0,,NaN,NaN,NaN,NaN,NaN,NaN,43,1,2020-11-11_15h06.58.229,Pirates_expt3,2020.1.2,Win32,60,NaN,NaN,NaN,NaN,NaN,NaN,NaN,,NaN,NaN,NaN,NaN,NaN,NaN,,NaN,NaN,NaN,NaN,NaN,NaN,"",,NaN,4,0,4,0,1,3,200,0,200,0,1,199,,NaN,200,0,200,0,1,199,space,7.84,,NaN,,NaN
NaN,NaN,NaN,NaN,NaN,"",NaN,NaN,"",NaN,NaN,NaN,NaN,NaN,NaN,NaN,NaN,NaN,NaN,NaN,NaN,NaN,NaN,NaN,NaN,NaN,NaN,NaN,NaN,NaN,,NaN,NaN,NaN,NaN,NaN,,NaN,NaN,NaN,NaN,NaN,NaN,NaN,,NaN,NaN,NaN,NaN,NaN,NaN,43,1,2020-11-11_15h06.58.229,Pirates_expt3,2020.1.2,Win32,60,NaN,NaN,NaN,NaN,NaN,NaN,NaN,,NaN,NaN,NaN,NaN,NaN,NaN,,NaN,NaN,NaN,NaN,NaN,NaN,"",,NaN,NaN,NaN,NaN,NaN,NaN,NaN,NaN,NaN,NaN,NaN,NaN,NaN,,NaN,9,0,9,0,1,NaN,,NaN,,NaN,,NaN
NaN,NaN,NaN,NaN,NaN,"",NaN,NaN,"",NaN,NaN,1,1,35,2,49,5,97,0.05,0.1,0.15,0.1,49,5,97,0.05,0.1,0.15,2,3,0,0,5,5,2036,58,space,5.89,0,35,2036,58,142,0,,NaN,NaN,NaN,NaN,NaN,NaN,43,1,2020-11-11_15h06.58.229,Pirates_expt3,2020.1.2,Win32,60,NaN,NaN,NaN,NaN,NaN,NaN,NaN,,NaN,NaN,NaN,NaN,NaN,NaN,,NaN,NaN,NaN,NaN,NaN,NaN,"",,NaN,4,0,4,0,1,3,200,0,200,0,1,199,,NaN,200,0,200,0,1,199,,NaN,,NaN,,NaN
NaN,NaN,NaN,NaN,NaN,"",NaN,NaN,"",NaN,NaN,1,1,34,2,51,5,98,0.05,0.1,0.15,0.1,51,5,98,0.05,0.1,0.15,0,4,0,0,5,5,2042,59,0,0,0,34,2042,59,141,0,,NaN,NaN,NaN,NaN,NaN,NaN,43,1,2020-11-11_15h06.58.229,Pirates_expt3,2020.1.2,Win32,60,NaN,NaN,NaN,NaN,NaN,NaN,NaN,,NaN,NaN,NaN,NaN,NaN,NaN,,NaN,NaN,NaN,NaN,NaN,NaN,"",,NaN,4,0,4,0,1,3,200,0,200,0,1,199,,NaN,200,0,200,0,1,199,space,5.89,,NaN,,NaN
NaN,NaN,NaN,NaN,NaN,"",NaN,NaN,"",NaN,NaN,NaN,NaN,NaN,NaN,NaN,NaN,NaN,NaN,NaN,NaN,NaN,NaN,NaN,NaN,NaN,NaN,NaN,NaN,NaN,,NaN,NaN,NaN,NaN,NaN,,NaN,NaN,NaN,NaN,NaN,NaN,NaN,,NaN,NaN,NaN,NaN,NaN,NaN,43,1,2020-11-11_15h06.58.229,Pirates_expt3,2020.1.2,Win32,60,NaN,NaN,NaN,NaN,NaN,NaN,NaN,,NaN,NaN,NaN,NaN,NaN,NaN,,NaN,NaN,NaN,NaN,NaN,NaN,"",,NaN,NaN,NaN,NaN,NaN,NaN,NaN,NaN,NaN,NaN,NaN,NaN,NaN,,NaN,10,0,10,0,1,NaN,,NaN,,NaN,,NaN
NaN,NaN,NaN,NaN,NaN,"",NaN,NaN,"",NaN,NaN,1,1,34,2,51,3,98,0.05,0.1,0.15,0.1,51,3,98,0.05,0.1,0.15,3,3,0,0,3,3,2042,59,s,0.52,11,34,2042,59,141,0,,NaN,NaN,NaN,NaN,NaN,NaN,43,1,2020-11-11_15h06.58.229,Pirates_expt3,2020.1.2,Win32,60,NaN,NaN,NaN,NaN,NaN,NaN,NaN,,NaN,NaN,NaN,NaN,NaN,NaN,,NaN,NaN,NaN,NaN,NaN,NaN,"",,NaN,4,0,4,0,1,3,200,0,200,0,1,199,,NaN,200,0,200,0,1,199,,NaN,,NaN,,NaN
NaN,NaN,NaN,NaN,NaN,"",NaN,NaN,"",NaN,NaN,1,1,34,2,54,12,98,0.05,0.1,0.15,0.1,54,12,98,0.05,0.1,0.15,0,4,0,0,12,3,2042,60,0,0,0,34,2042,60,140,36.38,,NaN,NaN,NaN,NaN,NaN,NaN,43,1,2020-11-11_15h06.58.229,Pirates_expt3,2020.1.2,Win32,60,NaN,NaN,NaN,NaN,NaN,NaN,NaN,,NaN,NaN,NaN,NaN,NaN,NaN,,NaN,NaN,NaN,NaN,NaN,NaN,"",,NaN,4,0,4,0,1,3,200,0,200,0,1,199,,NaN,200,0,200,0,1,199,s,0.52,,NaN,,NaN
NaN,NaN,NaN,NaN,NaN,"",NaN,NaN,"",NaN,NaN,NaN,NaN,NaN,NaN,NaN,NaN,NaN,NaN,NaN,NaN,NaN,NaN,NaN,NaN,NaN,NaN,NaN,NaN,NaN,,NaN,NaN,NaN,NaN,NaN,,NaN,NaN,NaN,NaN,NaN,NaN,NaN,,NaN,NaN,NaN,NaN,NaN,NaN,43,1,2020-11-11_15h06.58.229,Pirates_expt3,2020.1.2,Win32,60,NaN,NaN,NaN,NaN,NaN,NaN,NaN,,NaN,NaN,NaN,NaN,NaN,NaN,,NaN,NaN,NaN,NaN,NaN,NaN,"",,NaN,NaN,NaN,NaN,NaN,NaN,NaN,3,0,3,0,1,NaN,,NaN,NaN,NaN,NaN,NaN,NaN,NaN,,NaN,,NaN,,NaN
NaN,NaN,NaN,NaN,NaN,"",NaN,NaN,"",NaN,NaN,1,1,34,3,54,12,98,0.05,0.1,0.15,0.15,54,12,98,0.05,0.1,0.15,1,1,k,2.28,0,0,2042,61,N/A,0,0,34,2042,61,139,0,,NaN,NaN,NaN,NaN,NaN,NaN,43,1,2020-11-11_15h06.58.229,Pirates_expt3,2020.1.2,Win32,60,NaN,NaN,NaN,NaN,NaN,NaN,NaN,,NaN,NaN,NaN,NaN,NaN,NaN,,NaN,NaN,NaN,NaN,NaN,NaN,"",,NaN,4,0,4,0,1,3,200,0,200,0,1,199,,NaN,NaN,NaN,NaN,NaN,NaN,NaN,,NaN,,NaN,,NaN
NaN,NaN,NaN,NaN,NaN,"",NaN,NaN,"",NaN,NaN,1,1,34,3,56,21,98,0.05,0.1,0.15,0.15,56,21,98,0.05,0.1,0.15,0,2,0,0,0,0,2042,61,N/A,0,0,34,2042,61,139,0,,NaN,NaN,NaN,NaN,NaN,NaN,43,1,2020-11-11_15h06.58.229,Pirates_expt3,2020.1.2,Win32,60,NaN,NaN,NaN,NaN,NaN,NaN,NaN,,NaN,NaN,NaN,NaN,NaN,NaN,,NaN,NaN,NaN,NaN,NaN,NaN,"",,NaN,4,0,4,0,1,3,200,0,200,0,1,199,k,2.28,NaN,NaN,NaN,NaN,NaN,NaN,,NaN,,NaN,,NaN
NaN,NaN,NaN,NaN,NaN,"",NaN,NaN,"",NaN,NaN,1,1,33,3,56,21,98,0.05,0.1,0.15,0.15,56,21,98,0.05,0.1,0.15,2,3,0,0,98,98,2042,61,space,0.54,0,33,2042,61,139,0,,NaN,NaN,NaN,NaN,NaN,NaN,43,1,2020-11-11_15h06.58.229,Pirates_expt3,2020.1.2,Win32,60,NaN,NaN,NaN,NaN,NaN,NaN,NaN,,NaN,NaN,NaN,NaN,NaN,NaN,,NaN,NaN,NaN,NaN,NaN,NaN,"",,NaN,4,0,4,0,1,3,200,0,200,0,1,199,,NaN,200,0,200,0,1,199,,NaN,,NaN,,NaN
NaN,NaN,NaN,NaN,NaN,"",NaN,NaN,"",NaN,NaN,1,1,34,3,58,29,98,0.05,0.1,0.15,0.15,58,29,98,0.05,0.1,0.15,0,4,0,0,98,98,2141,62,0,0,0,34,2141,62,138,0,,NaN,NaN,NaN,NaN,NaN,NaN,43,1,2020-11-11_15h06.58.229,Pirates_expt3,2020.1.2,Win32,60,NaN,NaN,NaN,NaN,NaN,NaN,NaN,,NaN,NaN,NaN,NaN,NaN,NaN,,NaN,NaN,NaN,NaN,NaN,NaN,"",,NaN,4,0,4,0,1,3,200,0,200,0,1,199,,NaN,200,0,200,0,1,199,space,0.54,,NaN,,NaN
NaN,NaN,NaN,NaN,NaN,"",NaN,NaN,"",NaN,NaN,NaN,NaN,NaN,NaN,NaN,NaN,NaN,NaN,NaN,NaN,NaN,NaN,NaN,NaN,NaN,NaN,NaN,NaN,NaN,,NaN,NaN,NaN,NaN,NaN,,NaN,NaN,NaN,NaN,NaN,NaN,NaN,,NaN,NaN,NaN,NaN,NaN,NaN,43,1,2020-11-11_15h06.58.229,Pirates_expt3,2020.1.2,Win32,60,NaN,NaN,NaN,NaN,NaN,NaN,NaN,,NaN,NaN,NaN,NaN,NaN,NaN,,NaN,NaN,NaN,NaN,NaN,NaN,"",,NaN,NaN,NaN,NaN,NaN,NaN,NaN,NaN,NaN,NaN,NaN,NaN,NaN,,NaN,0,0,0,0,1,NaN,,NaN,,NaN,,NaN
NaN,NaN,NaN,NaN,NaN,"",NaN,NaN,"",NaN,NaN,1,1,34,3,58,29,93,0.05,0.1,0.15,0.15,58,29,93,0.05,0.1,0.15,2,3,0,0,93,93,2141,62,space,0.15,0,34,2141,62,138,0,,NaN,NaN,NaN,NaN,NaN,NaN,43,1,2020-11-11_15h06.58.229,Pirates_expt3,2020.1.2,Win32,60,NaN,NaN,NaN,NaN,NaN,NaN,NaN,,NaN,NaN,NaN,NaN,NaN,NaN,,NaN,NaN,NaN,NaN,NaN,NaN,"",,NaN,4,0,4,0,1,3,200,0,200,0,1,199,,NaN,200,0,200,0,1,199,,NaN,,NaN,,NaN
NaN,NaN,NaN,NaN,NaN,"",NaN,NaN,"",NaN,NaN,1,1,35,3,60,36,93,0.05,0.1,0.15,0.15,60,36,93,0.05,0.1,0.15,0,4,0,0,93,93,2235,63,0,0,0,35,2235,63,137,0,,NaN,NaN,NaN,NaN,NaN,NaN,43,1,2020-11-11_15h06.58.229,Pirates_expt3,2020.1.2,Win32,60,NaN,NaN,NaN,NaN,NaN,NaN,NaN,,NaN,NaN,NaN,NaN,NaN,NaN,,NaN,NaN,NaN,NaN,NaN,NaN,"",,NaN,4,0,4,0,1,3,200,0,200,0,1,199,,NaN,200,0,200,0,1,199,space,0.15,,NaN,,NaN
NaN,NaN,NaN,NaN,NaN,"",NaN,NaN,"",NaN,NaN,NaN,NaN,NaN,NaN,NaN,NaN,NaN,NaN,NaN,NaN,NaN,NaN,NaN,NaN,NaN,NaN,NaN,NaN,NaN,,NaN,NaN,NaN,NaN,NaN,,NaN,NaN,NaN,NaN,NaN,NaN,NaN,,NaN,NaN,NaN,NaN,NaN,NaN,43,1,2020-11-11_15h06.58.229,Pirates_expt3,2020.1.2,Win32,60,NaN,NaN,NaN,NaN,NaN,NaN,NaN,,NaN,NaN,NaN,NaN,NaN,NaN,,NaN,NaN,NaN,NaN,NaN,NaN,"",,NaN,NaN,NaN,NaN,NaN,NaN,NaN,NaN,NaN,NaN,NaN,NaN,NaN,,NaN,1,0,1,0,1,NaN,,NaN,,NaN,,NaN
NaN,NaN,NaN,NaN,NaN,"",NaN,NaN,"",NaN,NaN,1,1,35,3,60,36,84,0.05,0.1,0.15,0.15,60,36,84,0.05,0.1,0.15,2,3,0,0,84,84,2235,63,space,12.09,0,35,2235,63,137,0,,NaN,NaN,NaN,NaN,NaN,NaN,43,1,2020-11-11_15h06.58.229,Pirates_expt3,2020.1.2,Win32,60,NaN,NaN,NaN,NaN,NaN,NaN,NaN,,NaN,NaN,NaN,NaN,NaN,NaN,,NaN,NaN,NaN,NaN,NaN,NaN,"",,NaN,4,0,4,0,1,3,200,0,200,0,1,199,,NaN,200,0,200,0,1,199,,NaN,,NaN,,NaN
NaN,NaN,NaN,NaN,NaN,"",NaN,NaN,"",NaN,NaN,1,1,36,3,62,42,84,0.05,0.1,0.15,0.15,62,42,84,0.05,0.1,0.15,0,4,0,0,84,84,2319,64,0,0,0,36,2319,64,136,0,,NaN,NaN,NaN,NaN,NaN,NaN,43,1,2020-11-11_15h06.58.229,Pirates_expt3,2020.1.2,Win32,60,NaN,NaN,NaN,NaN,NaN,NaN,NaN,,NaN,NaN,NaN,NaN,NaN,NaN,,NaN,NaN,NaN,NaN,NaN,NaN,"",,NaN,4,0,4,0,1,3,200,0,200,0,1,199,,NaN,200,0,200,0,1,199,space,12.09,,NaN,,NaN
NaN,NaN,NaN,NaN,NaN,"",NaN,NaN,"",NaN,NaN,NaN,NaN,NaN,NaN,NaN,NaN,NaN,NaN,NaN,NaN,NaN,NaN,NaN,NaN,NaN,NaN,NaN,NaN,NaN,,NaN,NaN,NaN,NaN,NaN,,NaN,NaN,NaN,NaN,NaN,NaN,NaN,,NaN,NaN,NaN,NaN,NaN,NaN,43,1,2020-11-11_15h06.58.229,Pirates_expt3,2020.1.2,Win32,60,NaN,NaN,NaN,NaN,NaN,NaN,NaN,,NaN,NaN,NaN,NaN,NaN,NaN,,NaN,NaN,NaN,NaN,NaN,NaN,"",,NaN,NaN,NaN,NaN,NaN,NaN,NaN,NaN,NaN,NaN,NaN,NaN,NaN,,NaN,2,0,2,0,1,NaN,,NaN,,NaN,,NaN
NaN,NaN,NaN,NaN,NaN,"",NaN,NaN,"",NaN,NaN,1,1,36,3,62,42,72,0.05,0.1,0.15,0.15,62,42,72,0.05,0.1,0.15,2,3,0,0,72,72,2319,64,space,7.835,0,36,2319,64,136,0,,NaN,NaN,NaN,NaN,NaN,NaN,43,1,2020-11-11_15h06.58.229,Pirates_expt3,2020.1.2,Win32,60,NaN,NaN,NaN,NaN,NaN,NaN,NaN,,NaN,NaN,NaN,NaN,NaN,NaN,,NaN,NaN,NaN,NaN,NaN,NaN,"",,NaN,4,0,4,0,1,3,200,0,200,0,1,199,,NaN,200,0,200,0,1,199,,NaN,,NaN,,NaN
NaN,NaN,NaN,NaN,NaN,"",NaN,NaN,"",NaN,NaN,1,1,36,3,64,48,72,0.05,0.1,0.15,0.15,64,48,72,0.05,0.1,0.15,0,4,0,0,72,72,2392,65,0,0,0,36,2392,65,135,0,,NaN,NaN,NaN,NaN,NaN,NaN,43,1,2020-11-11_15h06.58.229,Pirates_expt3,2020.1.2,Win32,60,NaN,NaN,NaN,NaN,NaN,NaN,NaN,,NaN,NaN,NaN,NaN,NaN,NaN,,NaN,NaN,NaN,NaN,NaN,NaN,"",,NaN,4,0,4,0,1,3,200,0,200,0,1,199,,NaN,200,0,200,0,1,199,space,7.835,,NaN,,NaN
NaN,NaN,NaN,NaN,NaN,"",NaN,NaN,"",NaN,NaN,NaN,NaN,NaN,NaN,NaN,NaN,NaN,NaN,NaN,NaN,NaN,NaN,NaN,NaN,NaN,NaN,NaN,NaN,NaN,,NaN,NaN,NaN,NaN,NaN,,NaN,NaN,NaN,NaN,NaN,NaN,NaN,,NaN,NaN,NaN,NaN,NaN,NaN,43,1,2020-11-11_15h06.58.229,Pirates_expt3,2020.1.2,Win32,60,NaN,NaN,NaN,NaN,NaN,NaN,NaN,,NaN,NaN,NaN,NaN,NaN,NaN,,NaN,NaN,NaN,NaN,NaN,NaN,"",,NaN,NaN,NaN,NaN,NaN,NaN,NaN,NaN,NaN,NaN,NaN,NaN,NaN,,NaN,3,0,3,0,1,NaN,,NaN,,NaN,,NaN
NaN,NaN,NaN,NaN,NaN,"",NaN,NaN,"",NaN,NaN,1,1,36,3,64,48,59,0.05,0.1,0.15,0.15,64,48,59,0.05,0.1,0.15,2,3,0,0,59,59,2392,65,space,10.54,0,36,2392,65,135,0,,NaN,NaN,NaN,NaN,NaN,NaN,43,1,2020-11-11_15h06.58.229,Pirates_expt3,2020.1.2,Win32,60,NaN,NaN,NaN,NaN,NaN,NaN,NaN,,NaN,NaN,NaN,NaN,NaN,NaN,,NaN,NaN,NaN,NaN,NaN,NaN,"",,NaN,4,0,4,0,1,3,200,0,200,0,1,199,,NaN,200,0,200,0,1,199,,NaN,,NaN,,NaN
NaN,NaN,NaN,NaN,NaN,"",NaN,NaN,"",NaN,NaN,1,1,37,3,66,53,59,0.05,0.1,0.15,0.15,66,53,59,0.05,0.1,0.15,0,4,0,0,59,59,2451,66,0,0,0,37,2451,66,134,0,,NaN,NaN,NaN,NaN,NaN,NaN,43,1,2020-11-11_15h06.58.229,Pirates_expt3,2020.1.2,Win32,60,NaN,NaN,NaN,NaN,NaN,NaN,NaN,,NaN,NaN,NaN,NaN,NaN,NaN,,NaN,NaN,NaN,NaN,NaN,NaN,"",,NaN,4,0,4,0,1,3,200,0,200,0,1,199,,NaN,200,0,200,0,1,199,space,10.54,,NaN,,NaN
NaN,NaN,NaN,NaN,NaN,"",NaN,NaN,"",NaN,NaN,NaN,NaN,NaN,NaN,NaN,NaN,NaN,NaN,NaN,NaN,NaN,NaN,NaN,NaN,NaN,NaN,NaN,NaN,NaN,,NaN,NaN,NaN,NaN,NaN,,NaN,NaN,NaN,NaN,NaN,NaN,NaN,,NaN,NaN,NaN,NaN,NaN,NaN,43,1,2020-11-11_15h06.58.229,Pirates_expt3,2020.1.2,Win32,60,NaN,NaN,NaN,NaN,NaN,NaN,NaN,,NaN,NaN,NaN,NaN,NaN,NaN,,NaN,NaN,NaN,NaN,NaN,NaN,"",,NaN,NaN,NaN,NaN,NaN,NaN,NaN,NaN,NaN,NaN,NaN,NaN,NaN,,NaN,4,0,4,0,1,NaN,,NaN,,NaN,,NaN
NaN,NaN,NaN,NaN,NaN,"",NaN,NaN,"",NaN,NaN,1,1,37,3,66,53,45,0.05,0.1,0.15,0.15,66,53,45,0.05,0.1,0.15,2,3,0,0,45,45,2451,66,space,0.025,0,37,2451,66,134,0,,NaN,NaN,NaN,NaN,NaN,NaN,43,1,2020-11-11_15h06.58.229,Pirates_expt3,2020.1.2,Win32,60,NaN,NaN,NaN,NaN,NaN,NaN,NaN,,NaN,NaN,NaN,NaN,NaN,NaN,,NaN,NaN,NaN,NaN,NaN,NaN,"",,NaN,4,0,4,0,1,3,200,0,200,0,1,199,,NaN,200,0,200,0,1,199,,NaN,,NaN,,NaN
NaN,NaN,NaN,NaN,NaN,"",NaN,NaN,"",NaN,NaN,1,1,37,3,67,58,45,0.05,0.1,0.15,0.15,67,58,45,0.05,0.1,0.15,0,4,0,0,45,45,2497,67,0,0,0,37,2497,67,133,0,,NaN,NaN,NaN,NaN,NaN,NaN,43,1,2020-11-11_15h06.58.229,Pirates_expt3,2020.1.2,Win32,60,NaN,NaN,NaN,NaN,NaN,NaN,NaN,,NaN,NaN,NaN,NaN,NaN,NaN,,NaN,NaN,NaN,NaN,NaN,NaN,"",,NaN,4,0,4,0,1,3,200,0,200,0,1,199,,NaN,200,0,200,0,1,199,space,0.025,,NaN,,NaN
NaN,NaN,NaN,NaN,NaN,"",NaN,NaN,"",NaN,NaN,NaN,NaN,NaN,NaN,NaN,NaN,NaN,NaN,NaN,NaN,NaN,NaN,NaN,NaN,NaN,NaN,NaN,NaN,NaN,,NaN,NaN,NaN,NaN,NaN,,NaN,NaN,NaN,NaN,NaN,NaN,NaN,,NaN,NaN,NaN,NaN,NaN,NaN,43,1,2020-11-11_15h06.58.229,Pirates_expt3,2020.1.2,Win32,60,NaN,NaN,NaN,NaN,NaN,NaN,NaN,,NaN,NaN,NaN,NaN,NaN,NaN,,NaN,NaN,NaN,NaN,NaN,NaN,"",,NaN,NaN,NaN,NaN,NaN,NaN,NaN,NaN,NaN,NaN,NaN,NaN,NaN,,NaN,5,0,5,0,1,NaN,,NaN,,NaN,,NaN
NaN,NaN,NaN,NaN,NaN,"",NaN,NaN,"",NaN,NaN,1,1,37,3,67,58,33,0.05,0.1,0.15,0.15,67,58,33,0.05,0.1,0.15,2,3,0,0,33,33,2497,67,space,0.13,0,37,2497,67,133,0,,NaN,NaN,NaN,NaN,NaN,NaN,43,1,2020-11-11_15h06.58.229,Pirates_expt3,2020.1.2,Win32,60,NaN,NaN,NaN,NaN,NaN,NaN,NaN,,NaN,NaN,NaN,NaN,NaN,NaN,,NaN,NaN,NaN,NaN,NaN,NaN,"",,NaN,4,0,4,0,1,3,200,0,200,0,1,199,,NaN,200,0,200,0,1,199,,NaN,,NaN,,NaN
NaN,NaN,NaN,NaN,NaN,"",NaN,NaN,"",NaN,NaN,1,1,37,3,69,62,33,0.05,0.1,0.15,0.15,69,62,33,0.05,0.1,0.15,0,4,0,0,33,33,2530,68,0,0,0,37,2530,68,132,0,,NaN,NaN,NaN,NaN,NaN,NaN,43,1,2020-11-11_15h06.58.229,Pirates_expt3,2020.1.2,Win32,60,NaN,NaN,NaN,NaN,NaN,NaN,NaN,,NaN,NaN,NaN,NaN,NaN,NaN,,NaN,NaN,NaN,NaN,NaN,NaN,"",,NaN,4,0,4,0,1,3,200,0,200,0,1,199,,NaN,200,0,200,0,1,199,space,0.13,,NaN,,NaN
NaN,NaN,NaN,NaN,NaN,"",NaN,NaN,"",NaN,NaN,NaN,NaN,NaN,NaN,NaN,NaN,NaN,NaN,NaN,NaN,NaN,NaN,NaN,NaN,NaN,NaN,NaN,NaN,NaN,,NaN,NaN,NaN,NaN,NaN,,NaN,NaN,NaN,NaN,NaN,NaN,NaN,,NaN,NaN,NaN,NaN,NaN,NaN,43,1,2020-11-11_15h06.58.229,Pirates_expt3,2020.1.2,Win32,60,NaN,NaN,NaN,NaN,NaN,NaN,NaN,,NaN,NaN,NaN,NaN,NaN,NaN,,NaN,NaN,NaN,NaN,NaN,NaN,"",,NaN,NaN,NaN,NaN,NaN,NaN,NaN,NaN,NaN,NaN,NaN,NaN,NaN,,NaN,6,0,6,0,1,NaN,,NaN,,NaN,,NaN
NaN,NaN,NaN,NaN,NaN,"",NaN,NaN,"",NaN,NaN,1,1,37,3,69,62,23,0.05,0.1,0.15,0.15,69,62,23,0.05,0.1,0.15,2,3,0,0,23,23,2530,68,space,0.215,0,37,2530,68,132,0,,NaN,NaN,NaN,NaN,NaN,NaN,43,1,2020-11-11_15h06.58.229,Pirates_expt3,2020.1.2,Win32,60,NaN,NaN,NaN,NaN,NaN,NaN,NaN,,NaN,NaN,NaN,NaN,NaN,NaN,,NaN,NaN,NaN,NaN,NaN,NaN,"",,NaN,4,0,4,0,1,3,200,0,200,0,1,199,,NaN,200,0,200,0,1,199,,NaN,,NaN,,NaN
NaN,NaN,NaN,NaN,NaN,"",NaN,NaN,"",NaN,NaN,1,1,37,3,71,66,23,0.05,0.1,0.15,0.15,71,66,23,0.05,0.1,0.15,0,4,0,0,23,23,2554,69,0,0,0,37,2554,69,131,0,,NaN,NaN,NaN,NaN,NaN,NaN,43,1,2020-11-11_15h06.58.229,Pirates_expt3,2020.1.2,Win32,60,NaN,NaN,NaN,NaN,NaN,NaN,NaN,,NaN,NaN,NaN,NaN,NaN,NaN,,NaN,NaN,NaN,NaN,NaN,NaN,"",,NaN,4,0,4,0,1,3,200,0,200,0,1,199,,NaN,200,0,200,0,1,199,space,0.215,,NaN,,NaN
NaN,NaN,NaN,NaN,NaN,"",NaN,NaN,"",NaN,NaN,NaN,NaN,NaN,NaN,NaN,NaN,NaN,NaN,NaN,NaN,NaN,NaN,NaN,NaN,NaN,NaN,NaN,NaN,NaN,,NaN,NaN,NaN,NaN,NaN,,NaN,NaN,NaN,NaN,NaN,NaN,NaN,,NaN,NaN,NaN,NaN,NaN,NaN,43,1,2020-11-11_15h06.58.229,Pirates_expt3,2020.1.2,Win32,60,NaN,NaN,NaN,NaN,NaN,NaN,NaN,,NaN,NaN,NaN,NaN,NaN,NaN,,NaN,NaN,NaN,NaN,NaN,NaN,"",,NaN,NaN,NaN,NaN,NaN,NaN,NaN,NaN,NaN,NaN,NaN,NaN,NaN,,NaN,7,0,7,0,1,NaN,,NaN,,NaN,,NaN
NaN,NaN,NaN,NaN,NaN,"",NaN,NaN,"",NaN,NaN,1,1,37,3,71,66,15,0.05,0.1,0.15,0.15,71,66,15,0.05,0.1,0.15,2,3,0,0,15,15,2554,69,space,0.37,0,37,2554,69,131,0,,NaN,NaN,NaN,NaN,NaN,NaN,43,1,2020-11-11_15h06.58.229,Pirates_expt3,2020.1.2,Win32,60,NaN,NaN,NaN,NaN,NaN,NaN,NaN,,NaN,NaN,NaN,NaN,NaN,NaN,,NaN,NaN,NaN,NaN,NaN,NaN,"",,NaN,4,0,4,0,1,3,200,0,200,0,1,199,,NaN,200,0,200,0,1,199,,NaN,,NaN,,NaN
NaN,NaN,NaN,NaN,NaN,"",NaN,NaN,"",NaN,NaN,1,1,36,3,72,69,15,0.05,0.1,0.15,0.15,72,69,15,0.05,0.1,0.15,0,4,0,0,15,15,2569,70,0,0,0,36,2569,70,130,0,,NaN,NaN,NaN,NaN,NaN,NaN,43,1,2020-11-11_15h06.58.229,Pirates_expt3,2020.1.2,Win32,60,NaN,NaN,NaN,NaN,NaN,NaN,NaN,,NaN,NaN,NaN,NaN,NaN,NaN,,NaN,NaN,NaN,NaN,NaN,NaN,"",,NaN,4,0,4,0,1,3,200,0,200,0,1,199,,NaN,200,0,200,0,1,199,space,0.37,,NaN,,NaN
NaN,NaN,NaN,NaN,NaN,"",NaN,NaN,"",NaN,NaN,NaN,NaN,NaN,NaN,NaN,NaN,NaN,NaN,NaN,NaN,NaN,NaN,NaN,NaN,NaN,NaN,NaN,NaN,NaN,,NaN,NaN,NaN,NaN,NaN,,NaN,NaN,NaN,NaN,NaN,NaN,NaN,,NaN,NaN,NaN,NaN,NaN,NaN,43,1,2020-11-11_15h06.58.229,Pirates_expt3,2020.1.2,Win32,60,NaN,NaN,NaN,NaN,NaN,NaN,NaN,,NaN,NaN,NaN,NaN,NaN,NaN,,NaN,NaN,NaN,NaN,NaN,NaN,"",,NaN,NaN,NaN,NaN,NaN,NaN,NaN,NaN,NaN,NaN,NaN,NaN,NaN,,NaN,8,0,8,0,1,NaN,,NaN,,NaN,,NaN
NaN,NaN,NaN,NaN,NaN,"",NaN,NaN,"",NaN,NaN,1,1,36,3,72,69,9,0.05,0.1,0.15,0.15,72,69,9,0.05,0.1,0.15,2,3,0,0,9,9,2569,70,space,3.09,0,36,2569,70,130,0,,NaN,NaN,NaN,NaN,NaN,NaN,43,1,2020-11-11_15h06.58.229,Pirates_expt3,2020.1.2,Win32,60,NaN,NaN,NaN,NaN,NaN,NaN,NaN,,NaN,NaN,NaN,NaN,NaN,NaN,,NaN,NaN,NaN,NaN,NaN,NaN,"",,NaN,4,0,4,0,1,3,200,0,200,0,1,199,,NaN,200,0,200,0,1,199,,NaN,,NaN,,NaN
NaN,NaN,NaN,NaN,NaN,"",NaN,NaN,"",NaN,NaN,1,1,36,3,73,72,9,0.05,0.1,0.15,0.15,73,72,9,0.05,0.1,0.15,0,4,0,0,9,9,2579,71,0,0,0,36,2579,71,129,0,,NaN,NaN,NaN,NaN,NaN,NaN,43,1,2020-11-11_15h06.58.229,Pirates_expt3,2020.1.2,Win32,60,NaN,NaN,NaN,NaN,NaN,NaN,NaN,,NaN,NaN,NaN,NaN,NaN,NaN,,NaN,NaN,NaN,NaN,NaN,NaN,"",,NaN,4,0,4,0,1,3,200,0,200,0,1,199,,NaN,200,0,200,0,1,199,space,3.09,,NaN,,NaN
NaN,NaN,NaN,NaN,NaN,"",NaN,NaN,"",NaN,NaN,NaN,NaN,NaN,NaN,NaN,NaN,NaN,NaN,NaN,NaN,NaN,NaN,NaN,NaN,NaN,NaN,NaN,NaN,NaN,,NaN,NaN,NaN,NaN,NaN,,NaN,NaN,NaN,NaN,NaN,NaN,NaN,,NaN,NaN,NaN,NaN,NaN,NaN,43,1,2020-11-11_15h06.58.229,Pirates_expt3,2020.1.2,Win32,60,NaN,NaN,NaN,NaN,NaN,NaN,NaN,,NaN,NaN,NaN,NaN,NaN,NaN,,NaN,NaN,NaN,NaN,NaN,NaN,"",,NaN,NaN,NaN,NaN,NaN,NaN,NaN,NaN,NaN,NaN,NaN,NaN,NaN,,NaN,9,0,9,0,1,NaN,,NaN,,NaN,,NaN
NaN,NaN,NaN,NaN,NaN,"",NaN,NaN,"",NaN,NaN,1,1,36,3,73,72,5,0.05,0.1,0.15,0.15,73,72,5,0.05,0.1,0.15,3,3,0,0,5,5,2579,71,s,4.16,10,36,2579,71,129,0,,NaN,NaN,NaN,NaN,NaN,NaN,43,1,2020-11-11_15h06.58.229,Pirates_expt3,2020.1.2,Win32,60,NaN,NaN,NaN,NaN,NaN,NaN,NaN,,NaN,NaN,NaN,NaN,NaN,NaN,,NaN,NaN,NaN,NaN,NaN,NaN,"",,NaN,4,0,4,0,1,3,200,0,200,0,1,199,,NaN,200,0,200,0,1,199,,NaN,,NaN,,NaN
NaN,NaN,NaN,NaN,NaN,"",NaN,NaN,"",NaN,NaN,1,1,35,3,75,75,19,0.05,0.1,0.15,0.15,75,75,19,0.05,0.1,0.15,0,4,0,0,19,5,2579,72,0,0,0,35,2579,72,128,54.945,,NaN,NaN,NaN,NaN,NaN,NaN,43,1,2020-11-11_15h06.58.229,Pirates_expt3,2020.1.2,Win32,60,NaN,NaN,NaN,NaN,NaN,NaN,NaN,,NaN,NaN,NaN,NaN,NaN,NaN,,NaN,NaN,NaN,NaN,NaN,NaN,"",,NaN,4,0,4,0,1,3,200,0,200,0,1,199,,NaN,200,0,200,0,1,199,s,4.16,,NaN,,NaN
NaN,NaN,NaN,NaN,NaN,"",NaN,NaN,"",NaN,NaN,NaN,NaN,NaN,NaN,NaN,NaN,NaN,NaN,NaN,NaN,NaN,NaN,NaN,NaN,NaN,NaN,NaN,NaN,NaN,,NaN,NaN,NaN,NaN,NaN,,NaN,NaN,NaN,NaN,NaN,NaN,NaN,,NaN,NaN,NaN,NaN,NaN,NaN,43,1,2020-11-11_15h06.58.229,Pirates_expt3,2020.1.2,Win32,60,NaN,NaN,NaN,NaN,NaN,NaN,NaN,,NaN,NaN,NaN,NaN,NaN,NaN,,NaN,NaN,NaN,NaN,NaN,NaN,"",,NaN,NaN,NaN,NaN,NaN,NaN,NaN,4,0,4,0,1,NaN,,NaN,NaN,NaN,NaN,NaN,NaN,NaN,,NaN,,NaN,,NaN
NaN,NaN,NaN,NaN,NaN,"",NaN,NaN,"",NaN,NaN,1,1,35,2,75,75,19,0.05,0.1,0.15,0.1,75,75,19,0.05,0.1,0.15,1,1,j,2.085,0,0,2579,73,N/A,0,0,35,2579,73,127,0,,NaN,NaN,NaN,NaN,NaN,NaN,43,1,2020-11-11_15h06.58.229,Pirates_expt3,2020.1.2,Win32,60,NaN,NaN,NaN,NaN,NaN,NaN,NaN,,NaN,NaN,NaN,NaN,NaN,NaN,,NaN,NaN,NaN,NaN,NaN,NaN,"",,NaN,4,0,4,0,1,3,200,0,200,0,1,199,,NaN,NaN,NaN,NaN,NaN,NaN,NaN,,NaN,,NaN,,NaN
NaN,NaN,NaN,NaN,NaN,"",NaN,NaN,"",NaN,NaN,1,1,35,2,76,77,31,0.05,0.1,0.15,0.1,76,77,31,0.05,0.1,0.15,0,2,0,0,0,0,2579,73,N/A,0,0,35,2579,73,127,0,,NaN,NaN,NaN,NaN,NaN,NaN,43,1,2020-11-11_15h06.58.229,Pirates_expt3,2020.1.2,Win32,60,NaN,NaN,NaN,NaN,NaN,NaN,NaN,,NaN,NaN,NaN,NaN,NaN,NaN,,NaN,NaN,NaN,NaN,NaN,NaN,"",,NaN,4,0,4,0,1,3,200,0,200,0,1,199,j,2.085,NaN,NaN,NaN,NaN,NaN,NaN,,NaN,,NaN,,NaN
NaN,NaN,NaN,NaN,NaN,"",NaN,NaN,"",NaN,NaN,1,1,35,2,76,77,31,0.05,0.1,0.15,0.1,76,77,31,0.05,0.1,0.15,2,3,0,0,77,77,2579,73,space,0.905,0,35,2579,73,127,0,,NaN,NaN,NaN,NaN,NaN,NaN,43,1,2020-11-11_15h06.58.229,Pirates_expt3,2020.1.2,Win32,60,NaN,NaN,NaN,NaN,NaN,NaN,NaN,,NaN,NaN,NaN,NaN,NaN,NaN,,NaN,NaN,NaN,NaN,NaN,NaN,"",,NaN,4,0,4,0,1,3,200,0,200,0,1,199,,NaN,200,0,200,0,1,199,,NaN,,NaN,,NaN
NaN,NaN,NaN,NaN,NaN,"",NaN,NaN,"",NaN,NaN,1,1,35,2,77,77,42,0.05,0.1,0.15,0.1,77,77,42,0.05,0.1,0.15,0,4,0,0,77,77,2657,74,0,0,0,35,2657,74,126,0,,NaN,NaN,NaN,NaN,NaN,NaN,43,1,2020-11-11_15h06.58.229,Pirates_expt3,2020.1.2,Win32,60,NaN,NaN,NaN,NaN,NaN,NaN,NaN,,NaN,NaN,NaN,NaN,NaN,NaN,,NaN,NaN,NaN,NaN,NaN,NaN,"",,NaN,4,0,4,0,1,3,200,0,200,0,1,199,,NaN,200,0,200,0,1,199,space,0.905,,NaN,,NaN
NaN,NaN,NaN,NaN,NaN,"",NaN,NaN,"",NaN,NaN,NaN,NaN,NaN,NaN,NaN,NaN,NaN,NaN,NaN,NaN,NaN,NaN,NaN,NaN,NaN,NaN,NaN,NaN,NaN,,NaN,NaN,NaN,NaN,NaN,,NaN,NaN,NaN,NaN,NaN,NaN,NaN,,NaN,NaN,NaN,NaN,NaN,NaN,43,1,2020-11-11_15h06.58.229,Pirates_expt3,2020.1.2,Win32,60,NaN,NaN,NaN,NaN,NaN,NaN,NaN,,NaN,NaN,NaN,NaN,NaN,NaN,,NaN,NaN,NaN,NaN,NaN,NaN,"",,NaN,NaN,NaN,NaN,NaN,NaN,NaN,NaN,NaN,NaN,NaN,NaN,NaN,,NaN,0,0,0,0,1,NaN,,NaN,,NaN,,NaN
NaN,NaN,NaN,NaN,NaN,"",NaN,NaN,"",NaN,NaN,1,1,35,2,77,73,42,0.05,0.1,0.15,0.1,77,73,42,0.05,0.1,0.15,2,3,0,0,73,73,2657,74,space,0.225,0,35,2657,74,126,0,,NaN,NaN,NaN,NaN,NaN,NaN,43,1,2020-11-11_15h06.58.229,Pirates_expt3,2020.1.2,Win32,60,NaN,NaN,NaN,NaN,NaN,NaN,NaN,,NaN,NaN,NaN,NaN,NaN,NaN,,NaN,NaN,NaN,NaN,NaN,NaN,"",,NaN,4,0,4,0,1,3,200,0,200,0,1,199,,NaN,200,0,200,0,1,199,,NaN,,NaN,,NaN
NaN,NaN,NaN,NaN,NaN,"",NaN,NaN,"",NaN,NaN,1,1,36,2,78,73,50,0.05,0.1,0.15,0.1,78,73,50,0.05,0.1,0.15,0,4,0,0,73,73,2731,75,0,0,0,36,2731,75,125,0,,NaN,NaN,NaN,NaN,NaN,NaN,43,1,2020-11-11_15h06.58.229,Pirates_expt3,2020.1.2,Win32,60,NaN,NaN,NaN,NaN,NaN,NaN,NaN,,NaN,NaN,NaN,NaN,NaN,NaN,,NaN,NaN,NaN,NaN,NaN,NaN,"",,NaN,4,0,4,0,1,3,200,0,200,0,1,199,,NaN,200,0,200,0,1,199,space,0.225,,NaN,,NaN
NaN,NaN,NaN,NaN,NaN,"",NaN,NaN,"",NaN,NaN,NaN,NaN,NaN,NaN,NaN,NaN,NaN,NaN,NaN,NaN,NaN,NaN,NaN,NaN,NaN,NaN,NaN,NaN,NaN,,NaN,NaN,NaN,NaN,NaN,,NaN,NaN,NaN,NaN,NaN,NaN,NaN,,NaN,NaN,NaN,NaN,NaN,NaN,43,1,2020-11-11_15h06.58.229,Pirates_expt3,2020.1.2,Win32,60,NaN,NaN,NaN,NaN,NaN,NaN,NaN,,NaN,NaN,NaN,NaN,NaN,NaN,,NaN,NaN,NaN,NaN,NaN,NaN,"",,NaN,NaN,NaN,NaN,NaN,NaN,NaN,NaN,NaN,NaN,NaN,NaN,NaN,,NaN,1,0,1,0,1,NaN,,NaN,,NaN,,NaN
NaN,NaN,NaN,NaN,NaN,"",NaN,NaN,"",NaN,NaN,1,1,36,2,78,66,50,0.05,0.1,0.15,0.1,78,66,50,0.05,0.1,0.15,2,3,0,0,66,66,2731,75,space,0.32,0,36,2731,75,125,0,,NaN,NaN,NaN,NaN,NaN,NaN,43,1,2020-11-11_15h06.58.229,Pirates_expt3,2020.1.2,Win32,60,NaN,NaN,NaN,NaN,NaN,NaN,NaN,,NaN,NaN,NaN,NaN,NaN,NaN,,NaN,NaN,NaN,NaN,NaN,NaN,"",,NaN,4,0,4,0,1,3,200,0,200,0,1,199,,NaN,200,0,200,0,1,199,,NaN,,NaN,,NaN
NaN,NaN,NaN,NaN,NaN,"",NaN,NaN,"",NaN,NaN,1,1,36,2,79,66,58,0.05,0.1,0.15,0.1,79,66,58,0.05,0.1,0.15,0,4,0,0,66,66,2798,76,0,0,0,36,2798,76,124,0,,NaN,NaN,NaN,NaN,NaN,NaN,43,1,2020-11-11_15h06.58.229,Pirates_expt3,2020.1.2,Win32,60,NaN,NaN,NaN,NaN,NaN,NaN,NaN,,NaN,NaN,NaN,NaN,NaN,NaN,,NaN,NaN,NaN,NaN,NaN,NaN,"",,NaN,4,0,4,0,1,3,200,0,200,0,1,199,,NaN,200,0,200,0,1,199,space,0.32,,NaN,,NaN
NaN,NaN,NaN,NaN,NaN,"",NaN,NaN,"",NaN,NaN,NaN,NaN,NaN,NaN,NaN,NaN,NaN,NaN,NaN,NaN,NaN,NaN,NaN,NaN,NaN,NaN,NaN,NaN,NaN,,NaN,NaN,NaN,NaN,NaN,,NaN,NaN,NaN,NaN,NaN,NaN,NaN,,NaN,NaN,NaN,NaN,NaN,NaN,43,1,2020-11-11_15h06.58.229,Pirates_expt3,2020.1.2,Win32,60,NaN,NaN,NaN,NaN,NaN,NaN,NaN,,NaN,NaN,NaN,NaN,NaN,NaN,,NaN,NaN,NaN,NaN,NaN,NaN,"",,NaN,NaN,NaN,NaN,NaN,NaN,NaN,NaN,NaN,NaN,NaN,NaN,NaN,,NaN,2,0,2,0,1,NaN,,NaN,,NaN,,NaN
NaN,NaN,NaN,NaN,NaN,"",NaN,NaN,"",NaN,NaN,1,1,36,2,79,57,58,0.05,0.1,0.15,0.1,79,57,58,0.05,0.1,0.15,2,3,0,0,57,57,2798,76,space,56.701,0,36,2798,76,124,0,,NaN,NaN,NaN,NaN,NaN,NaN,43,1,2020-11-11_15h06.58.229,Pirates_expt3,2020.1.2,Win32,60,NaN,NaN,NaN,NaN,NaN,NaN,NaN,,NaN,NaN,NaN,NaN,NaN,NaN,,NaN,NaN,NaN,NaN,NaN,NaN,"",,NaN,4,0,4,0,1,3,200,0,200,0,1,199,,NaN,200,0,200,0,1,199,,NaN,,NaN,,NaN
