consent_given,screeningQ1,screeningQ2,age,gender,startingValues,rewardVec,decay_rate,replenishRates,travel_duration,feedback_duration,blk_number,blk_type,meanRewardBlock,currentPatchPosition,patchValueLeft,patchValueTop,patchValueRight,patchReplenishLeft,patchReplenishTop,patchReplenishRight,currentPatchReplenishRate,patchValueSlow,patchValueMedium,patchValueFast,patchReplenishSlow,patchReplenishMedium,patchReplenishFast,decisionType,trialPhase,patch_selection_key,patch_selection_RT,actual_rew_gain,rew_fbk_displayed,blk_points,blk_actions,exploit_phase_key,exploit_phase_RT,num_exploit_actions,meanRewardEntireExperiment,total_points,total_actions,actions_remaining,timeInPatch_seconds_,task_instruc_resp_keys,task_instruc_resp_rt,trials_welcome_thisRepN,trials_welcome_thisTrialN,trials_welcome_thisN,trials_welcome_thisIndex,trials_welcome_ran,participant,session,date,expName,psychopyVersion,OS,frameRate,slider_response,slider_rt,trials_screening_thisRepN,trials_screening_thisTrialN,trials_screening_thisN,trials_screening_thisIndex,trials_screening_ran,demo_resp_keys,demo_resp_rt,trials_demographics_thisRepN,trials_demographics_thisTrialN,trials_demographics_thisN,trials_demographics_thisIndex,trials_demographics_ran,key_resp_keys,key_resp_rt,trials_instructions_thisRepN,trials_instructions_thisTrialN,trials_instructions_thisN,trials_instructions_thisIndex,trials_instructions_ran,rewardVectorToManipulate,blk_instruc_resp_keys,blk_instruc_resp_rt,blk_loop_thisRepN,blk_loop_thisTrialN,blk_loop_thisN,blk_loop_thisIndex,blk_loop_ran,blk_loop_order,trials_thisRepN,trials_thisTrialN,trials_thisN,trials_thisIndex,trials_ran,trials_order,sel_resp_keys,sel_resp_rt,exploit_loop_thisRepN,exploit_loop_thisTrialN,exploit_loop_thisN,exploit_loop_thisIndex,exploit_loop_ran,exploit_loop_order,exploit_resp_keys,exploit_resp_rt,post_blk_resp_keys,post_blk_resp_rt,closing_resp_keys,closing_resp_rt
0,0,0,0,0,"0",0,0,"0",0,0,0,0,0,0,0,0,0,0,0,0,0,0,0,0,0,0,0,0,0,0,0,0,0,0,0,0,0,0,0,NaN,NaN,NaN,0,space,4.38209,0,0,0,0,1,54,1,2020-11-11_08h58.12.776,Pirates_expt3,2020.1.2,Linux x86_64,60,NaN,NaN,NaN,NaN,NaN,NaN,NaN,,NaN,NaN,NaN,NaN,NaN,NaN,,NaN,NaN,NaN,NaN,NaN,NaN,"",,NaN,NaN,NaN,NaN,NaN,NaN,NaN,NaN,NaN,NaN,NaN,NaN,NaN,,NaN,NaN,NaN,NaN,NaN,NaN,NaN,,NaN,,NaN,,NaN
NaN,NaN,NaN,NaN,NaN,"",NaN,NaN,"",NaN,NaN,NaN,NaN,NaN,NaN,NaN,NaN,NaN,NaN,NaN,NaN,NaN,NaN,NaN,NaN,NaN,NaN,NaN,NaN,NaN,,NaN,NaN,NaN,NaN,NaN,,NaN,NaN,NaN,NaN,NaN,NaN,NaN,space,6.95089,1,0,1,0,1,54,1,2020-11-11_08h58.12.776,Pirates_expt3,2020.1.2,Linux x86_64,60,NaN,NaN,NaN,NaN,NaN,NaN,NaN,,NaN,NaN,NaN,NaN,NaN,NaN,,NaN,NaN,NaN,NaN,NaN,NaN,"",,NaN,NaN,NaN,NaN,NaN,NaN,NaN,NaN,NaN,NaN,NaN,NaN,NaN,,NaN,NaN,NaN,NaN,NaN,NaN,NaN,,NaN,,NaN,,NaN
NaN,NaN,NaN,NaN,NaN,"",NaN,NaN,"",NaN,NaN,NaN,NaN,NaN,NaN,NaN,NaN,NaN,NaN,NaN,NaN,NaN,NaN,NaN,NaN,NaN,NaN,NaN,NaN,NaN,,NaN,NaN,NaN,NaN,NaN,,NaN,NaN,NaN,NaN,NaN,NaN,NaN,space,8.98998,2,0,2,0,1,54,1,2020-11-11_08h58.12.776,Pirates_expt3,2020.1.2,Linux x86_64,60,NaN,NaN,NaN,NaN,NaN,NaN,NaN,,NaN,NaN,NaN,NaN,NaN,NaN,,NaN,NaN,NaN,NaN,NaN,NaN,"",,NaN,NaN,NaN,NaN,NaN,NaN,NaN,NaN,NaN,NaN,NaN,NaN,NaN,,NaN,NaN,NaN,NaN,NaN,NaN,NaN,,NaN,,NaN,,NaN
NaN,NaN,NaN,NaN,NaN,"",NaN,NaN,"",NaN,NaN,NaN,NaN,NaN,NaN,NaN,NaN,NaN,NaN,NaN,NaN,NaN,NaN,NaN,NaN,NaN,NaN,NaN,NaN,NaN,,NaN,NaN,NaN,NaN,NaN,,NaN,NaN,NaN,NaN,NaN,NaN,NaN,space,2.41553,3,0,3,0,1,54,1,2020-11-11_08h58.12.776,Pirates_expt3,2020.1.2,Linux x86_64,60,NaN,NaN,NaN,NaN,NaN,NaN,NaN,,NaN,NaN,NaN,NaN,NaN,NaN,,NaN,NaN,NaN,NaN,NaN,NaN,"",,NaN,NaN,NaN,NaN,NaN,NaN,NaN,NaN,NaN,NaN,NaN,NaN,NaN,,NaN,NaN,NaN,NaN,NaN,NaN,NaN,,NaN,,NaN,,NaN
NaN,NaN,NaN,NaN,NaN,"",NaN,NaN,"",NaN,NaN,NaN,NaN,NaN,NaN,NaN,NaN,NaN,NaN,NaN,NaN,NaN,NaN,NaN,NaN,NaN,NaN,NaN,NaN,NaN,,NaN,NaN,NaN,NaN,NaN,,NaN,NaN,NaN,NaN,NaN,NaN,NaN,space,1.54705,4,0,4,0,1,54,1,2020-11-11_08h58.12.776,Pirates_expt3,2020.1.2,Linux x86_64,60,NaN,NaN,NaN,NaN,NaN,NaN,NaN,,NaN,NaN,NaN,NaN,NaN,NaN,,NaN,NaN,NaN,NaN,NaN,NaN,"",,NaN,NaN,NaN,NaN,NaN,NaN,NaN,NaN,NaN,NaN,NaN,NaN,NaN,,NaN,NaN,NaN,NaN,NaN,NaN,NaN,,NaN,,NaN,,NaN
NaN,NaN,NaN,NaN,NaN,"",NaN,NaN,"",NaN,NaN,NaN,NaN,NaN,NaN,NaN,NaN,NaN,NaN,NaN,NaN,NaN,NaN,NaN,NaN,NaN,NaN,NaN,NaN,NaN,,NaN,NaN,NaN,NaN,NaN,,NaN,NaN,NaN,NaN,NaN,NaN,NaN,space,8.669405,5,0,5,0,1,54,1,2020-11-11_08h58.12.776,Pirates_expt3,2020.1.2,Linux x86_64,60,NaN,NaN,NaN,NaN,NaN,NaN,NaN,,NaN,NaN,NaN,NaN,NaN,NaN,,NaN,NaN,NaN,NaN,NaN,NaN,"",,NaN,NaN,NaN,NaN,NaN,NaN,NaN,NaN,NaN,NaN,NaN,NaN,NaN,,NaN,NaN,NaN,NaN,NaN,NaN,NaN,,NaN,,NaN,,NaN
1,0,NaN,NaN,NaN,"",NaN,NaN,"",NaN,NaN,NaN,NaN,NaN,NaN,NaN,NaN,NaN,NaN,NaN,NaN,NaN,NaN,NaN,NaN,NaN,NaN,NaN,NaN,NaN,,NaN,NaN,NaN,NaN,NaN,,NaN,NaN,NaN,NaN,NaN,NaN,NaN,,NaN,NaN,NaN,NaN,NaN,NaN,54,1,2020-11-11_08h58.12.776,Pirates_expt3,2020.1.2,Linux x86_64,60,1,5.162315,0,0,0,0,1,,NaN,NaN,NaN,NaN,NaN,NaN,,NaN,NaN,NaN,NaN,NaN,NaN,"",,NaN,NaN,NaN,NaN,NaN,NaN,NaN,NaN,NaN,NaN,NaN,NaN,NaN,,NaN,NaN,NaN,NaN,NaN,NaN,NaN,,NaN,,NaN,,NaN
NaN,NaN,1,NaN,NaN,"",NaN,NaN,"",NaN,NaN,NaN,NaN,NaN,NaN,NaN,NaN,NaN,NaN,NaN,NaN,NaN,NaN,NaN,NaN,NaN,NaN,NaN,NaN,NaN,,NaN,NaN,NaN,NaN,NaN,,NaN,NaN,NaN,NaN,NaN,NaN,NaN,,NaN,NaN,NaN,NaN,NaN,NaN,54,1,2020-11-11_08h58.12.776,Pirates_expt3,2020.1.2,Linux x86_64,60,3,18.62519,1,0,1,0,1,,NaN,NaN,NaN,NaN,NaN,NaN,,NaN,NaN,NaN,NaN,NaN,NaN,"",,NaN,NaN,NaN,NaN,NaN,NaN,NaN,NaN,NaN,NaN,NaN,NaN,NaN,,NaN,NaN,NaN,NaN,NaN,NaN,NaN,,NaN,,NaN,,NaN
NaN,NaN,NaN,32,NaN,"",NaN,NaN,"",NaN,NaN,NaN,NaN,NaN,NaN,NaN,NaN,NaN,NaN,NaN,NaN,NaN,NaN,NaN,NaN,NaN,NaN,NaN,NaN,NaN,,NaN,NaN,NaN,NaN,NaN,,NaN,NaN,NaN,NaN,NaN,NaN,NaN,,NaN,NaN,NaN,NaN,NaN,NaN,54,1,2020-11-11_08h58.12.776,Pirates_expt3,2020.1.2,Linux x86_64,60,NaN,NaN,NaN,NaN,NaN,NaN,NaN,return,3.719115,0,0,0,0,1,,NaN,NaN,NaN,NaN,NaN,NaN,"",,NaN,NaN,NaN,NaN,NaN,NaN,NaN,NaN,NaN,NaN,NaN,NaN,NaN,,NaN,NaN,NaN,NaN,NaN,NaN,NaN,,NaN,,NaN,,NaN
NaN,NaN,NaN,NaN,0,"",NaN,NaN,"",NaN,NaN,NaN,NaN,NaN,NaN,NaN,NaN,NaN,NaN,NaN,NaN,NaN,NaN,NaN,NaN,NaN,NaN,NaN,NaN,NaN,,NaN,NaN,NaN,NaN,NaN,,NaN,NaN,NaN,NaN,NaN,NaN,NaN,,NaN,NaN,NaN,NaN,NaN,NaN,54,1,2020-11-11_08h58.12.776,Pirates_expt3,2020.1.2,Linux x86_64,60,NaN,NaN,NaN,NaN,NaN,NaN,NaN,return,3.517275,1,0,1,0,1,,NaN,NaN,NaN,NaN,NaN,NaN,"",,NaN,NaN,NaN,NaN,NaN,NaN,NaN,NaN,NaN,NaN,NaN,NaN,NaN,,NaN,NaN,NaN,NaN,NaN,NaN,NaN,,NaN,,NaN,,NaN
NaN,NaN,NaN,NaN,NaN,"",NaN,NaN,"",NaN,NaN,NaN,NaN,NaN,NaN,NaN,NaN,NaN,NaN,NaN,NaN,NaN,NaN,NaN,NaN,NaN,NaN,NaN,NaN,NaN,,NaN,NaN,NaN,NaN,NaN,,NaN,NaN,NaN,NaN,NaN,NaN,NaN,,NaN,NaN,NaN,NaN,NaN,NaN,54,1,2020-11-11_08h58.12.776,Pirates_expt3,2020.1.2,Linux x86_64,60,NaN,NaN,NaN,NaN,NaN,NaN,NaN,,NaN,NaN,NaN,NaN,NaN,NaN,space,10.50711,0,0,0,0,1,"",,NaN,NaN,NaN,NaN,NaN,NaN,NaN,NaN,NaN,NaN,NaN,NaN,NaN,,NaN,NaN,NaN,NaN,NaN,NaN,NaN,,NaN,,NaN,,NaN
NaN,NaN,NaN,NaN,NaN,"",NaN,NaN,"",NaN,NaN,NaN,NaN,NaN,NaN,NaN,NaN,NaN,NaN,NaN,NaN,NaN,NaN,NaN,NaN,NaN,NaN,NaN,NaN,NaN,,NaN,NaN,NaN,NaN,NaN,,NaN,NaN,NaN,NaN,NaN,NaN,NaN,,NaN,NaN,NaN,NaN,NaN,NaN,54,1,2020-11-11_08h58.12.776,Pirates_expt3,2020.1.2,Linux x86_64,60,NaN,NaN,NaN,NaN,NaN,NaN,NaN,,NaN,NaN,NaN,NaN,NaN,NaN,space,3.76429,1,0,1,0,1,"",,NaN,NaN,NaN,NaN,NaN,NaN,NaN,NaN,NaN,NaN,NaN,NaN,NaN,,NaN,NaN,NaN,NaN,NaN,NaN,NaN,,NaN,,NaN,,NaN
NaN,NaN,NaN,NaN,NaN,"",NaN,NaN,"",NaN,NaN,NaN,NaN,NaN,NaN,NaN,NaN,NaN,NaN,NaN,NaN,NaN,NaN,NaN,NaN,NaN,NaN,NaN,NaN,NaN,,NaN,NaN,NaN,NaN,NaN,,NaN,NaN,NaN,NaN,NaN,NaN,NaN,,NaN,NaN,NaN,NaN,NaN,NaN,54,1,2020-11-11_08h58.12.776,Pirates_expt3,2020.1.2,Linux x86_64,60,NaN,NaN,NaN,NaN,NaN,NaN,NaN,,NaN,NaN,NaN,NaN,NaN,NaN,space,2.857475,2,0,2,0,1,"",,NaN,NaN,NaN,NaN,NaN,NaN,NaN,NaN,NaN,NaN,NaN,NaN,NaN,,NaN,NaN,NaN,NaN,NaN,NaN,NaN,,NaN,,NaN,,NaN
NaN,NaN,NaN,NaN,NaN,"",NaN,NaN,"",NaN,NaN,NaN,NaN,NaN,NaN,NaN,NaN,NaN,NaN,NaN,NaN,NaN,NaN,NaN,NaN,NaN,NaN,NaN,NaN,NaN,,NaN,NaN,NaN,NaN,NaN,,NaN,NaN,NaN,NaN,NaN,NaN,NaN,,NaN,NaN,NaN,NaN,NaN,NaN,54,1,2020-11-11_08h58.12.776,Pirates_expt3,2020.1.2,Linux x86_64,60,NaN,NaN,NaN,NaN,NaN,NaN,NaN,,NaN,NaN,NaN,NaN,NaN,NaN,space,5.28418,3,0,3,0,1,"",,NaN,NaN,NaN,NaN,NaN,NaN,NaN,NaN,NaN,NaN,NaN,NaN,NaN,,NaN,NaN,NaN,NaN,NaN,NaN,NaN,,NaN,,NaN,,NaN
NaN,NaN,NaN,NaN,NaN,"",NaN,NaN,"",NaN,NaN,NaN,NaN,NaN,NaN,NaN,NaN,NaN,NaN,NaN,NaN,NaN,NaN,NaN,NaN,NaN,NaN,NaN,NaN,NaN,,NaN,NaN,NaN,NaN,NaN,,NaN,NaN,NaN,NaN,NaN,NaN,NaN,,NaN,NaN,NaN,NaN,NaN,NaN,54,1,2020-11-11_08h58.12.776,Pirates_expt3,2020.1.2,Linux x86_64,60,NaN,NaN,NaN,NaN,NaN,NaN,NaN,,NaN,NaN,NaN,NaN,NaN,NaN,space,4.651295,4,0,4,0,1,"",,NaN,NaN,NaN,NaN,NaN,NaN,NaN,NaN,NaN,NaN,NaN,NaN,NaN,,NaN,NaN,NaN,NaN,NaN,NaN,NaN,,NaN,,NaN,,NaN
NaN,NaN,NaN,NaN,NaN,"",NaN,NaN,"",NaN,NaN,NaN,NaN,NaN,NaN,NaN,NaN,NaN,NaN,NaN,NaN,NaN,NaN,NaN,NaN,NaN,NaN,NaN,NaN,NaN,,NaN,NaN,NaN,NaN,NaN,,NaN,NaN,NaN,NaN,NaN,NaN,NaN,,NaN,NaN,NaN,NaN,NaN,NaN,54,1,2020-11-11_08h58.12.776,Pirates_expt3,2020.1.2,Linux x86_64,60,NaN,NaN,NaN,NaN,NaN,NaN,NaN,,NaN,NaN,NaN,NaN,NaN,NaN,space,2.44325,5,0,5,0,1,"",,NaN,NaN,NaN,NaN,NaN,NaN,NaN,NaN,NaN,NaN,NaN,NaN,NaN,,NaN,NaN,NaN,NaN,NaN,NaN,NaN,,NaN,,NaN,,NaN
NaN,NaN,NaN,NaN,NaN,"",NaN,NaN,"",NaN,NaN,NaN,NaN,NaN,NaN,NaN,NaN,NaN,NaN,NaN,NaN,NaN,NaN,NaN,NaN,NaN,NaN,NaN,NaN,NaN,,NaN,NaN,NaN,NaN,NaN,,NaN,NaN,NaN,NaN,NaN,NaN,NaN,,NaN,NaN,NaN,NaN,NaN,NaN,54,1,2020-11-11_08h58.12.776,Pirates_expt3,2020.1.2,Linux x86_64,60,NaN,NaN,NaN,NaN,NaN,NaN,NaN,,NaN,NaN,NaN,NaN,NaN,NaN,space,8.571995,6,0,6,0,1,"",,NaN,NaN,NaN,NaN,NaN,NaN,NaN,NaN,NaN,NaN,NaN,NaN,NaN,,NaN,NaN,NaN,NaN,NaN,NaN,NaN,,NaN,,NaN,,NaN
NaN,NaN,NaN,NaN,NaN,"",NaN,NaN,"",NaN,NaN,NaN,NaN,NaN,NaN,NaN,NaN,NaN,NaN,NaN,NaN,NaN,NaN,NaN,NaN,NaN,NaN,NaN,NaN,NaN,,NaN,NaN,NaN,NaN,NaN,,NaN,NaN,NaN,NaN,NaN,NaN,NaN,,NaN,NaN,NaN,NaN,NaN,NaN,54,1,2020-11-11_08h58.12.776,Pirates_expt3,2020.1.2,Linux x86_64,60,NaN,NaN,NaN,NaN,NaN,NaN,NaN,,NaN,NaN,NaN,NaN,NaN,NaN,space,10.621895,7,0,7,0,1,"",,NaN,NaN,NaN,NaN,NaN,NaN,NaN,NaN,NaN,NaN,NaN,NaN,NaN,,NaN,NaN,NaN,NaN,NaN,NaN,NaN,,NaN,,NaN,,NaN
NaN,NaN,NaN,NaN,NaN,"",NaN,NaN,"",NaN,NaN,NaN,NaN,NaN,NaN,NaN,NaN,NaN,NaN,NaN,NaN,NaN,NaN,NaN,NaN,NaN,NaN,NaN,NaN,NaN,,NaN,NaN,NaN,NaN,NaN,,NaN,NaN,NaN,NaN,NaN,NaN,NaN,,NaN,NaN,NaN,NaN,NaN,NaN,54,1,2020-11-11_08h58.12.776,Pirates_expt3,2020.1.2,Linux x86_64,60,NaN,NaN,NaN,NaN,NaN,NaN,NaN,,NaN,NaN,NaN,NaN,NaN,NaN,space,8.487355,8,0,8,0,1,"",,NaN,NaN,NaN,NaN,NaN,NaN,NaN,NaN,NaN,NaN,NaN,NaN,NaN,,NaN,NaN,NaN,NaN,NaN,NaN,NaN,,NaN,,NaN,,NaN
NaN,NaN,NaN,NaN,NaN,"",NaN,NaN,"",NaN,NaN,NaN,NaN,NaN,NaN,NaN,NaN,NaN,NaN,NaN,NaN,NaN,NaN,NaN,NaN,NaN,NaN,NaN,NaN,NaN,,NaN,NaN,NaN,NaN,NaN,,NaN,NaN,NaN,NaN,NaN,NaN,NaN,,NaN,NaN,NaN,NaN,NaN,NaN,54,1,2020-11-11_08h58.12.776,Pirates_expt3,2020.1.2,Linux x86_64,60,NaN,NaN,NaN,NaN,NaN,NaN,NaN,,NaN,NaN,NaN,NaN,NaN,NaN,space,1.670255,9,0,9,0,1,"",,NaN,NaN,NaN,NaN,NaN,NaN,NaN,NaN,NaN,NaN,NaN,NaN,NaN,,NaN,NaN,NaN,NaN,NaN,NaN,NaN,,NaN,,NaN,,NaN
NaN,NaN,NaN,NaN,NaN,"[100,100,100]",NaN,0.05,"[0.05,0.1,0.15]",1,1.5,1,1,0,1,77,70,72,0.05,0.1,0.15,0.05,77,70,72,0.05,0.1,0.15,1,1,f,9.03799,0,0,0,1,N/A,0,0,0,0,1,199,0,,NaN,NaN,NaN,NaN,NaN,NaN,54,1,2020-11-11_08h58.12.776,Pirates_expt3,2020.1.2,Linux x86_64,60,NaN,NaN,NaN,NaN,NaN,NaN,NaN,,NaN,NaN,NaN,NaN,NaN,NaN,,NaN,NaN,NaN,NaN,NaN,NaN,"[77,70,72]",return,13.052565,4,0,4,0,1,3,200,0,200,0,1,199,,NaN,NaN,NaN,NaN,NaN,NaN,NaN,,NaN,,NaN,,NaN
NaN,NaN,NaN,NaN,NaN,"",NaN,NaN,"",NaN,NaN,1,1,0,1,78,73,76,0.05,0.1,0.15,0.05,78,73,76,0.05,0.1,0.15,0,2,0,0,0,0,0,1,N/A,0,0,0,0,1,199,0,,NaN,NaN,NaN,NaN,NaN,NaN,54,1,2020-11-11_08h58.12.776,Pirates_expt3,2020.1.2,Linux x86_64,60,NaN,NaN,NaN,NaN,NaN,NaN,NaN,,NaN,NaN,NaN,NaN,NaN,NaN,,NaN,NaN,NaN,NaN,NaN,NaN,"",,NaN,4,0,4,0,1,3,200,0,200,0,1,199,f,9.03799,NaN,NaN,NaN,NaN,NaN,NaN,,NaN,,NaN,,NaN
NaN,NaN,NaN,NaN,NaN,"",NaN,NaN,"",NaN,NaN,1,1,0,1,78,73,76,0.05,0.1,0.15,0.05,78,73,76,0.05,0.1,0.15,2,3,0,0,78,78,0,1,space,2.11831,0,0,0,1,199,0,,NaN,NaN,NaN,NaN,NaN,NaN,54,1,2020-11-11_08h58.12.776,Pirates_expt3,2020.1.2,Linux x86_64,60,NaN,NaN,NaN,NaN,NaN,NaN,NaN,,NaN,NaN,NaN,NaN,NaN,NaN,,NaN,NaN,NaN,NaN,NaN,NaN,"",,NaN,4,0,4,0,1,3,200,0,200,0,1,199,,NaN,200,0,200,0,1,199,,NaN,,NaN,,NaN
NaN,NaN,NaN,NaN,NaN,"",NaN,NaN,"",NaN,NaN,1,1,39,1,78,75,79,0.05,0.1,0.15,0.05,78,75,79,0.05,0.1,0.15,0,4,0,0,78,78,78,2,0,0,0,39,78,2,198,0,,NaN,NaN,NaN,NaN,NaN,NaN,54,1,2020-11-11_08h58.12.776,Pirates_expt3,2020.1.2,Linux x86_64,60,NaN,NaN,NaN,NaN,NaN,NaN,NaN,,NaN,NaN,NaN,NaN,NaN,NaN,,NaN,NaN,NaN,NaN,NaN,NaN,"",,NaN,4,0,4,0,1,3,200,0,200,0,1,199,,NaN,200,0,200,0,1,199,space,2.11831,,NaN,,NaN
NaN,NaN,NaN,NaN,NaN,"",NaN,NaN,"",NaN,NaN,NaN,NaN,NaN,NaN,NaN,NaN,NaN,NaN,NaN,NaN,NaN,NaN,NaN,NaN,NaN,NaN,NaN,NaN,NaN,,NaN,NaN,NaN,NaN,NaN,,NaN,NaN,NaN,NaN,NaN,NaN,NaN,,NaN,NaN,NaN,NaN,NaN,NaN,54,1,2020-11-11_08h58.12.776,Pirates_expt3,2020.1.2,Linux x86_64,60,NaN,NaN,NaN,NaN,NaN,NaN,NaN,,NaN,NaN,NaN,NaN,NaN,NaN,,NaN,NaN,NaN,NaN,NaN,NaN,"",,NaN,NaN,NaN,NaN,NaN,NaN,NaN,NaN,NaN,NaN,NaN,NaN,NaN,,NaN,0,0,0,0,1,NaN,,NaN,,NaN,,NaN
NaN,NaN,NaN,NaN,NaN,"",NaN,NaN,"",NaN,NaN,1,1,39,1,74,75,79,0.05,0.1,0.15,0.05,74,75,79,0.05,0.1,0.15,2,3,0,0,74,74,78,2,space,0.472855,0,39,78,2,198,0,,NaN,NaN,NaN,NaN,NaN,NaN,54,1,2020-11-11_08h58.12.776,Pirates_expt3,2020.1.2,Linux x86_64,60,NaN,NaN,NaN,NaN,NaN,NaN,NaN,,NaN,NaN,NaN,NaN,NaN,NaN,,NaN,NaN,NaN,NaN,NaN,NaN,"",,NaN,4,0,4,0,1,3,200,0,200,0,1,199,,NaN,200,0,200,0,1,199,,NaN,,NaN,,NaN
NaN,NaN,NaN,NaN,NaN,"",NaN,NaN,"",NaN,NaN,1,1,50,1,74,78,82,0.05,0.1,0.15,0.05,74,78,82,0.05,0.1,0.15,0,4,0,0,74,74,152,3,0,0,0,50,152,3,197,0,,NaN,NaN,NaN,NaN,NaN,NaN,54,1,2020-11-11_08h58.12.776,Pirates_expt3,2020.1.2,Linux x86_64,60,NaN,NaN,NaN,NaN,NaN,NaN,NaN,,NaN,NaN,NaN,NaN,NaN,NaN,,NaN,NaN,NaN,NaN,NaN,NaN,"",,NaN,4,0,4,0,1,3,200,0,200,0,1,199,,NaN,200,0,200,0,1,199,space,0.472855,,NaN,,NaN
NaN,NaN,NaN,NaN,NaN,"",NaN,NaN,"",NaN,NaN,NaN,NaN,NaN,NaN,NaN,NaN,NaN,NaN,NaN,NaN,NaN,NaN,NaN,NaN,NaN,NaN,NaN,NaN,NaN,,NaN,NaN,NaN,NaN,NaN,,NaN,NaN,NaN,NaN,NaN,NaN,NaN,,NaN,NaN,NaN,NaN,NaN,NaN,54,1,2020-11-11_08h58.12.776,Pirates_expt3,2020.1.2,Linux x86_64,60,NaN,NaN,NaN,NaN,NaN,NaN,NaN,,NaN,NaN,NaN,NaN,NaN,NaN,,NaN,NaN,NaN,NaN,NaN,NaN,"",,NaN,NaN,NaN,NaN,NaN,NaN,NaN,NaN,NaN,NaN,NaN,NaN,NaN,,NaN,1,0,1,0,1,NaN,,NaN,,NaN,,NaN
NaN,NaN,NaN,NaN,NaN,"",NaN,NaN,"",NaN,NaN,1,1,50,1,67,78,82,0.05,0.1,0.15,0.05,67,78,82,0.05,0.1,0.15,2,3,0,0,67,67,152,3,space,0.10988,0,50,152,3,197,0,,NaN,NaN,NaN,NaN,NaN,NaN,54,1,2020-11-11_08h58.12.776,Pirates_expt3,2020.1.2,Linux x86_64,60,NaN,NaN,NaN,NaN,NaN,NaN,NaN,,NaN,NaN,NaN,NaN,NaN,NaN,,NaN,NaN,NaN,NaN,NaN,NaN,"",,NaN,4,0,4,0,1,3,200,0,200,0,1,199,,NaN,200,0,200,0,1,199,,NaN,,NaN,,NaN
NaN,NaN,NaN,NaN,NaN,"",NaN,NaN,"",NaN,NaN,1,1,54,1,67,80,85,0.05,0.1,0.15,0.05,67,80,85,0.05,0.1,0.15,0,4,0,0,67,67,219,4,0,0,0,54,219,4,196,0,,NaN,NaN,NaN,NaN,NaN,NaN,54,1,2020-11-11_08h58.12.776,Pirates_expt3,2020.1.2,Linux x86_64,60,NaN,NaN,NaN,NaN,NaN,NaN,NaN,,NaN,NaN,NaN,NaN,NaN,NaN,,NaN,NaN,NaN,NaN,NaN,NaN,"",,NaN,4,0,4,0,1,3,200,0,200,0,1,199,,NaN,200,0,200,0,1,199,space,0.10988,,NaN,,NaN
NaN,NaN,NaN,NaN,NaN,"",NaN,NaN,"",NaN,NaN,NaN,NaN,NaN,NaN,NaN,NaN,NaN,NaN,NaN,NaN,NaN,NaN,NaN,NaN,NaN,NaN,NaN,NaN,NaN,,NaN,NaN,NaN,NaN,NaN,,NaN,NaN,NaN,NaN,NaN,NaN,NaN,,NaN,NaN,NaN,NaN,NaN,NaN,54,1,2020-11-11_08h58.12.776,Pirates_expt3,2020.1.2,Linux x86_64,60,NaN,NaN,NaN,NaN,NaN,NaN,NaN,,NaN,NaN,NaN,NaN,NaN,NaN,,NaN,NaN,NaN,NaN,NaN,NaN,"",,NaN,NaN,NaN,NaN,NaN,NaN,NaN,NaN,NaN,NaN,NaN,NaN,NaN,,NaN,2,0,2,0,1,NaN,,NaN,,NaN,,NaN
NaN,NaN,NaN,NaN,NaN,"",NaN,NaN,"",NaN,NaN,1,1,54,1,57,80,85,0.05,0.1,0.15,0.05,57,80,85,0.05,0.1,0.15,2,3,0,0,57,57,219,4,space,0.05019,0,54,219,4,196,0,,NaN,NaN,NaN,NaN,NaN,NaN,54,1,2020-11-11_08h58.12.776,Pirates_expt3,2020.1.2,Linux x86_64,60,NaN,NaN,NaN,NaN,NaN,NaN,NaN,,NaN,NaN,NaN,NaN,NaN,NaN,,NaN,NaN,NaN,NaN,NaN,NaN,"",,NaN,4,0,4,0,1,3,200,0,200,0,1,199,,NaN,200,0,200,0,1,199,,NaN,,NaN,,NaN
NaN,NaN,NaN,NaN,NaN,"",NaN,NaN,"",NaN,NaN,1,1,55,1,57,82,87,0.05,0.1,0.15,0.05,57,82,87,0.05,0.1,0.15,0,4,0,0,57,57,276,5,0,0,0,55,276,5,195,0,,NaN,NaN,NaN,NaN,NaN,NaN,54,1,2020-11-11_08h58.12.776,Pirates_expt3,2020.1.2,Linux x86_64,60,NaN,NaN,NaN,NaN,NaN,NaN,NaN,,NaN,NaN,NaN,NaN,NaN,NaN,,NaN,NaN,NaN,NaN,NaN,NaN,"",,NaN,4,0,4,0,1,3,200,0,200,0,1,199,,NaN,200,0,200,0,1,199,space,0.05019,,NaN,,NaN
NaN,NaN,NaN,NaN,NaN,"",NaN,NaN,"",NaN,NaN,NaN,NaN,NaN,NaN,NaN,NaN,NaN,NaN,NaN,NaN,NaN,NaN,NaN,NaN,NaN,NaN,NaN,NaN,NaN,,NaN,NaN,NaN,NaN,NaN,,NaN,NaN,NaN,NaN,NaN,NaN,NaN,,NaN,NaN,NaN,NaN,NaN,NaN,54,1,2020-11-11_08h58.12.776,Pirates_expt3,2020.1.2,Linux x86_64,60,NaN,NaN,NaN,NaN,NaN,NaN,NaN,,NaN,NaN,NaN,NaN,NaN,NaN,,NaN,NaN,NaN,NaN,NaN,NaN,"",,NaN,NaN,NaN,NaN,NaN,NaN,NaN,NaN,NaN,NaN,NaN,NaN,NaN,,NaN,3,0,3,0,1,NaN,,NaN,,NaN,,NaN
NaN,NaN,NaN,NaN,NaN,"",NaN,NaN,"",NaN,NaN,1,1,55,1,46,82,87,0.05,0.1,0.15,0.05,46,82,87,0.05,0.1,0.15,2,3,0,0,46,46,276,5,space,0.156055,0,55,276,5,195,0,,NaN,NaN,NaN,NaN,NaN,NaN,54,1,2020-11-11_08h58.12.776,Pirates_expt3,2020.1.2,Linux x86_64,60,NaN,NaN,NaN,NaN,NaN,NaN,NaN,,NaN,NaN,NaN,NaN,NaN,NaN,,NaN,NaN,NaN,NaN,NaN,NaN,"",,NaN,4,0,4,0,1,3,200,0,200,0,1,199,,NaN,200,0,200,0,1,199,,NaN,,NaN,,NaN
NaN,NaN,NaN,NaN,NaN,"",NaN,NaN,"",NaN,NaN,1,1,53,1,46,84,89,0.05,0.1,0.15,0.05,46,84,89,0.05,0.1,0.15,0,4,0,0,46,46,323,6,0,0,0,53,323,6,194,0,,NaN,NaN,NaN,NaN,NaN,NaN,54,1,2020-11-11_08h58.12.776,Pirates_expt3,2020.1.2,Linux x86_64,60,NaN,NaN,NaN,NaN,NaN,NaN,NaN,,NaN,NaN,NaN,NaN,NaN,NaN,,NaN,NaN,NaN,NaN,NaN,NaN,"",,NaN,4,0,4,0,1,3,200,0,200,0,1,199,,NaN,200,0,200,0,1,199,space,0.156055,,NaN,,NaN
NaN,NaN,NaN,NaN,NaN,"",NaN,NaN,"",NaN,NaN,NaN,NaN,NaN,NaN,NaN,NaN,NaN,NaN,NaN,NaN,NaN,NaN,NaN,NaN,NaN,NaN,NaN,NaN,NaN,,NaN,NaN,NaN,NaN,NaN,,NaN,NaN,NaN,NaN,NaN,NaN,NaN,,NaN,NaN,NaN,NaN,NaN,NaN,54,1,2020-11-11_08h58.12.776,Pirates_expt3,2020.1.2,Linux x86_64,60,NaN,NaN,NaN,NaN,NaN,NaN,NaN,,NaN,NaN,NaN,NaN,NaN,NaN,,NaN,NaN,NaN,NaN,NaN,NaN,"",,NaN,NaN,NaN,NaN,NaN,NaN,NaN,NaN,NaN,NaN,NaN,NaN,NaN,,NaN,4,0,4,0,1,NaN,,NaN,,NaN,,NaN
NaN,NaN,NaN,NaN,NaN,"",NaN,NaN,"",NaN,NaN,1,1,53,1,36,84,89,0.05,0.1,0.15,0.05,36,84,89,0.05,0.1,0.15,2,3,0,0,36,36,323,6,space,2.33241,0,53,323,6,194,0,,NaN,NaN,NaN,NaN,NaN,NaN,54,1,2020-11-11_08h58.12.776,Pirates_expt3,2020.1.2,Linux x86_64,60,NaN,NaN,NaN,NaN,NaN,NaN,NaN,,NaN,NaN,NaN,NaN,NaN,NaN,,NaN,NaN,NaN,NaN,NaN,NaN,"",,NaN,4,0,4,0,1,3,200,0,200,0,1,199,,NaN,200,0,200,0,1,199,,NaN,,NaN,,NaN
NaN,NaN,NaN,NaN,NaN,"",NaN,NaN,"",NaN,NaN,1,1,51,1,36,85,91,0.05,0.1,0.15,0.05,36,85,91,0.05,0.1,0.15,0,4,0,0,36,36,359,7,0,0,0,51,359,7,193,0,,NaN,NaN,NaN,NaN,NaN,NaN,54,1,2020-11-11_08h58.12.776,Pirates_expt3,2020.1.2,Linux x86_64,60,NaN,NaN,NaN,NaN,NaN,NaN,NaN,,NaN,NaN,NaN,NaN,NaN,NaN,,NaN,NaN,NaN,NaN,NaN,NaN,"",,NaN,4,0,4,0,1,3,200,0,200,0,1,199,,NaN,200,0,200,0,1,199,space,2.33241,,NaN,,NaN
NaN,NaN,NaN,NaN,NaN,"",NaN,NaN,"",NaN,NaN,NaN,NaN,NaN,NaN,NaN,NaN,NaN,NaN,NaN,NaN,NaN,NaN,NaN,NaN,NaN,NaN,NaN,NaN,NaN,,NaN,NaN,NaN,NaN,NaN,,NaN,NaN,NaN,NaN,NaN,NaN,NaN,,NaN,NaN,NaN,NaN,NaN,NaN,54,1,2020-11-11_08h58.12.776,Pirates_expt3,2020.1.2,Linux x86_64,60,NaN,NaN,NaN,NaN,NaN,NaN,NaN,,NaN,NaN,NaN,NaN,NaN,NaN,,NaN,NaN,NaN,NaN,NaN,NaN,"",,NaN,NaN,NaN,NaN,NaN,NaN,NaN,NaN,NaN,NaN,NaN,NaN,NaN,,NaN,5,0,5,0,1,NaN,,NaN,,NaN,,NaN
NaN,NaN,NaN,NaN,NaN,"",NaN,NaN,"",NaN,NaN,1,1,51,1,26,85,91,0.05,0.1,0.15,0.05,26,85,91,0.05,0.1,0.15,2,3,0,0,26,26,359,7,space,0.0912,0,51,359,7,193,0,,NaN,NaN,NaN,NaN,NaN,NaN,54,1,2020-11-11_08h58.12.776,Pirates_expt3,2020.1.2,Linux x86_64,60,NaN,NaN,NaN,NaN,NaN,NaN,NaN,,NaN,NaN,NaN,NaN,NaN,NaN,,NaN,NaN,NaN,NaN,NaN,NaN,"",,NaN,4,0,4,0,1,3,200,0,200,0,1,199,,NaN,200,0,200,0,1,199,,NaN,,NaN,,NaN
NaN,NaN,NaN,NaN,NaN,"",NaN,NaN,"",NaN,NaN,1,1,48,1,26,87,92,0.05,0.1,0.15,0.05,26,87,92,0.05,0.1,0.15,0,4,0,0,26,26,386,8,0,0,0,48,386,8,192,0,,NaN,NaN,NaN,NaN,NaN,NaN,54,1,2020-11-11_08h58.12.776,Pirates_expt3,2020.1.2,Linux x86_64,60,NaN,NaN,NaN,NaN,NaN,NaN,NaN,,NaN,NaN,NaN,NaN,NaN,NaN,,NaN,NaN,NaN,NaN,NaN,NaN,"",,NaN,4,0,4,0,1,3,200,0,200,0,1,199,,NaN,200,0,200,0,1,199,space,0.0912,,NaN,,NaN
NaN,NaN,NaN,NaN,NaN,"",NaN,NaN,"",NaN,NaN,NaN,NaN,NaN,NaN,NaN,NaN,NaN,NaN,NaN,NaN,NaN,NaN,NaN,NaN,NaN,NaN,NaN,NaN,NaN,,NaN,NaN,NaN,NaN,NaN,,NaN,NaN,NaN,NaN,NaN,NaN,NaN,,NaN,NaN,NaN,NaN,NaN,NaN,54,1,2020-11-11_08h58.12.776,Pirates_expt3,2020.1.2,Linux x86_64,60,NaN,NaN,NaN,NaN,NaN,NaN,NaN,,NaN,NaN,NaN,NaN,NaN,NaN,,NaN,NaN,NaN,NaN,NaN,NaN,"",,NaN,NaN,NaN,NaN,NaN,NaN,NaN,NaN,NaN,NaN,NaN,NaN,NaN,,NaN,6,0,6,0,1,NaN,,NaN,,NaN,,NaN
NaN,NaN,NaN,NaN,NaN,"",NaN,NaN,"",NaN,NaN,1,1,48,1,18,87,92,0.05,0.1,0.15,0.05,18,87,92,0.05,0.1,0.15,2,3,0,0,18,18,386,8,space,0.210425,0,48,386,8,192,0,,NaN,NaN,NaN,NaN,NaN,NaN,54,1,2020-11-11_08h58.12.776,Pirates_expt3,2020.1.2,Linux x86_64,60,NaN,NaN,NaN,NaN,NaN,NaN,NaN,,NaN,NaN,NaN,NaN,NaN,NaN,,NaN,NaN,NaN,NaN,NaN,NaN,"",,NaN,4,0,4,0,1,3,200,0,200,0,1,199,,NaN,200,0,200,0,1,199,,NaN,,NaN,,NaN
NaN,NaN,NaN,NaN,NaN,"",NaN,NaN,"",NaN,NaN,1,1,45,1,18,88,93,0.05,0.1,0.15,0.05,18,88,93,0.05,0.1,0.15,0,4,0,0,18,18,405,9,0,0,0,45,405,9,191,0,,NaN,NaN,NaN,NaN,NaN,NaN,54,1,2020-11-11_08h58.12.776,Pirates_expt3,2020.1.2,Linux x86_64,60,NaN,NaN,NaN,NaN,NaN,NaN,NaN,,NaN,NaN,NaN,NaN,NaN,NaN,,NaN,NaN,NaN,NaN,NaN,NaN,"",,NaN,4,0,4,0,1,3,200,0,200,0,1,199,,NaN,200,0,200,0,1,199,space,0.210425,,NaN,,NaN
NaN,NaN,NaN,NaN,NaN,"",NaN,NaN,"",NaN,NaN,NaN,NaN,NaN,NaN,NaN,NaN,NaN,NaN,NaN,NaN,NaN,NaN,NaN,NaN,NaN,NaN,NaN,NaN,NaN,,NaN,NaN,NaN,NaN,NaN,,NaN,NaN,NaN,NaN,NaN,NaN,NaN,,NaN,NaN,NaN,NaN,NaN,NaN,54,1,2020-11-11_08h58.12.776,Pirates_expt3,2020.1.2,Linux x86_64,60,NaN,NaN,NaN,NaN,NaN,NaN,NaN,,NaN,NaN,NaN,NaN,NaN,NaN,,NaN,NaN,NaN,NaN,NaN,NaN,"",,NaN,NaN,NaN,NaN,NaN,NaN,NaN,NaN,NaN,NaN,NaN,NaN,NaN,,NaN,7,0,7,0,1,NaN,,NaN,,NaN,,NaN
NaN,NaN,NaN,NaN,NaN,"",NaN,NaN,"",NaN,NaN,1,1,45,1,12,88,93,0.05,0.1,0.15,0.05,12,88,93,0.05,0.1,0.15,2,3,0,0,12,12,405,9,space,0.0151,0,45,405,9,191,0,,NaN,NaN,NaN,NaN,NaN,NaN,54,1,2020-11-11_08h58.12.776,Pirates_expt3,2020.1.2,Linux x86_64,60,NaN,NaN,NaN,NaN,NaN,NaN,NaN,,NaN,NaN,NaN,NaN,NaN,NaN,,NaN,NaN,NaN,NaN,NaN,NaN,"",,NaN,4,0,4,0,1,3,200,0,200,0,1,199,,NaN,200,0,200,0,1,199,,NaN,,NaN,,NaN
NaN,NaN,NaN,NaN,NaN,"",NaN,NaN,"",NaN,NaN,1,1,41,1,12,89,94,0.05,0.1,0.15,0.05,12,89,94,0.05,0.1,0.15,0,4,0,0,12,12,417,10,0,0,0,41,417,10,190,0,,NaN,NaN,NaN,NaN,NaN,NaN,54,1,2020-11-11_08h58.12.776,Pirates_expt3,2020.1.2,Linux x86_64,60,NaN,NaN,NaN,NaN,NaN,NaN,NaN,,NaN,NaN,NaN,NaN,NaN,NaN,,NaN,NaN,NaN,NaN,NaN,NaN,"",,NaN,4,0,4,0,1,3,200,0,200,0,1,199,,NaN,200,0,200,0,1,199,space,0.0151,,NaN,,NaN
NaN,NaN,NaN,NaN,NaN,"",NaN,NaN,"",NaN,NaN,NaN,NaN,NaN,NaN,NaN,NaN,NaN,NaN,NaN,NaN,NaN,NaN,NaN,NaN,NaN,NaN,NaN,NaN,NaN,,NaN,NaN,NaN,NaN,NaN,,NaN,NaN,NaN,NaN,NaN,NaN,NaN,,NaN,NaN,NaN,NaN,NaN,NaN,54,1,2020-11-11_08h58.12.776,Pirates_expt3,2020.1.2,Linux x86_64,60,NaN,NaN,NaN,NaN,NaN,NaN,NaN,,NaN,NaN,NaN,NaN,NaN,NaN,,NaN,NaN,NaN,NaN,NaN,NaN,"",,NaN,NaN,NaN,NaN,NaN,NaN,NaN,NaN,NaN,NaN,NaN,NaN,NaN,,NaN,8,0,8,0,1,NaN,,NaN,,NaN,,NaN
NaN,NaN,NaN,NaN,NaN,"",NaN,NaN,"",NaN,NaN,1,1,41,1,7,89,94,0.05,0.1,0.15,0.05,7,89,94,0.05,0.1,0.15,2,3,0,0,7,7,417,10,space,0.395495,0,41,417,10,190,0,,NaN,NaN,NaN,NaN,NaN,NaN,54,1,2020-11-11_08h58.12.776,Pirates_expt3,2020.1.2,Linux x86_64,60,NaN,NaN,NaN,NaN,NaN,NaN,NaN,,NaN,NaN,NaN,NaN,NaN,NaN,,NaN,NaN,NaN,NaN,NaN,NaN,"",,NaN,4,0,4,0,1,3,200,0,200,0,1,199,,NaN,200,0,200,0,1,199,,NaN,,NaN,,NaN
NaN,NaN,NaN,NaN,NaN,"",NaN,NaN,"",NaN,NaN,1,1,38,1,7,90,95,0.05,0.1,0.15,0.05,7,90,95,0.05,0.1,0.15,0,4,0,0,7,7,425,11,0,0,0,38,425,11,189,0,,NaN,NaN,NaN,NaN,NaN,NaN,54,1,2020-11-11_08h58.12.776,Pirates_expt3,2020.1.2,Linux x86_64,60,NaN,NaN,NaN,NaN,NaN,NaN,NaN,,NaN,NaN,NaN,NaN,NaN,NaN,,NaN,NaN,NaN,NaN,NaN,NaN,"",,NaN,4,0,4,0,1,3,200,0,200,0,1,199,,NaN,200,0,200,0,1,199,space,0.395495,,NaN,,NaN
NaN,NaN,NaN,NaN,NaN,"",NaN,NaN,"",NaN,NaN,NaN,NaN,NaN,NaN,NaN,NaN,NaN,NaN,NaN,NaN,NaN,NaN,NaN,NaN,NaN,NaN,NaN,NaN,NaN,,NaN,NaN,NaN,NaN,NaN,,NaN,NaN,NaN,NaN,NaN,NaN,NaN,,NaN,NaN,NaN,NaN,NaN,NaN,54,1,2020-11-11_08h58.12.776,Pirates_expt3,2020.1.2,Linux x86_64,60,NaN,NaN,NaN,NaN,NaN,NaN,NaN,,NaN,NaN,NaN,NaN,NaN,NaN,,NaN,NaN,NaN,NaN,NaN,NaN,"",,NaN,NaN,NaN,NaN,NaN,NaN,NaN,NaN,NaN,NaN,NaN,NaN,NaN,,NaN,9,0,9,0,1,NaN,,NaN,,NaN,,NaN
NaN,NaN,NaN,NaN,NaN,"",NaN,NaN,"",NaN,NaN,1,1,38,1,4,90,95,0.05,0.1,0.15,0.05,4,90,95,0.05,0.1,0.15,2,3,0,0,4,4,425,11,space,0.31585,0,38,425,11,189,0,,NaN,NaN,NaN,NaN,NaN,NaN,54,1,2020-11-11_08h58.12.776,Pirates_expt3,2020.1.2,Linux x86_64,60,NaN,NaN,NaN,NaN,NaN,NaN,NaN,,NaN,NaN,NaN,NaN,NaN,NaN,,NaN,NaN,NaN,NaN,NaN,NaN,"",,NaN,4,0,4,0,1,3,200,0,200,0,1,199,,NaN,200,0,200,0,1,199,,NaN,,NaN,,NaN
NaN,NaN,NaN,NaN,NaN,"",NaN,NaN,"",NaN,NaN,1,1,35,1,4,91,96,0.05,0.1,0.15,0.05,4,91,96,0.05,0.1,0.15,0,4,0,0,4,4,429,12,0,0,0,35,429,12,188,0,,NaN,NaN,NaN,NaN,NaN,NaN,54,1,2020-11-11_08h58.12.776,Pirates_expt3,2020.1.2,Linux x86_64,60,NaN,NaN,NaN,NaN,NaN,NaN,NaN,,NaN,NaN,NaN,NaN,NaN,NaN,,NaN,NaN,NaN,NaN,NaN,NaN,"",,NaN,4,0,4,0,1,3,200,0,200,0,1,199,,NaN,200,0,200,0,1,199,space,0.31585,,NaN,,NaN
NaN,NaN,NaN,NaN,NaN,"",NaN,NaN,"",NaN,NaN,NaN,NaN,NaN,NaN,NaN,NaN,NaN,NaN,NaN,NaN,NaN,NaN,NaN,NaN,NaN,NaN,NaN,NaN,NaN,,NaN,NaN,NaN,NaN,NaN,,NaN,NaN,NaN,NaN,NaN,NaN,NaN,,NaN,NaN,NaN,NaN,NaN,NaN,54,1,2020-11-11_08h58.12.776,Pirates_expt3,2020.1.2,Linux x86_64,60,NaN,NaN,NaN,NaN,NaN,NaN,NaN,,NaN,NaN,NaN,NaN,NaN,NaN,,NaN,NaN,NaN,NaN,NaN,NaN,"",,NaN,NaN,NaN,NaN,NaN,NaN,NaN,NaN,NaN,NaN,NaN,NaN,NaN,,NaN,10,0,10,0,1,NaN,,NaN,,NaN,,NaN
NaN,NaN,NaN,NaN,NaN,"",NaN,NaN,"",NaN,NaN,1,1,35,1,2,91,96,0.05,0.1,0.15,0.05,2,91,96,0.05,0.1,0.15,2,3,0,0,2,2,429,12,space,0.3097,0,35,429,12,188,0,,NaN,NaN,NaN,NaN,NaN,NaN,54,1,2020-11-11_08h58.12.776,Pirates_expt3,2020.1.2,Linux x86_64,60,NaN,NaN,NaN,NaN,NaN,NaN,NaN,,NaN,NaN,NaN,NaN,NaN,NaN,,NaN,NaN,NaN,NaN,NaN,NaN,"",,NaN,4,0,4,0,1,3,200,0,200,0,1,199,,NaN,200,0,200,0,1,199,,NaN,,NaN,,NaN
NaN,NaN,NaN,NaN,NaN,"",NaN,NaN,"",NaN,NaN,1,1,33,1,2,92,96,0.05,0.1,0.15,0.05,2,92,96,0.05,0.1,0.15,0,4,0,0,2,2,432,13,0,0,0,33,432,13,187,0,,NaN,NaN,NaN,NaN,NaN,NaN,54,1,2020-11-11_08h58.12.776,Pirates_expt3,2020.1.2,Linux x86_64,60,NaN,NaN,NaN,NaN,NaN,NaN,NaN,,NaN,NaN,NaN,NaN,NaN,NaN,,NaN,NaN,NaN,NaN,NaN,NaN,"",,NaN,4,0,4,0,1,3,200,0,200,0,1,199,,NaN,200,0,200,0,1,199,space,0.3097,,NaN,,NaN
NaN,NaN,NaN,NaN,NaN,"",NaN,NaN,"",NaN,NaN,NaN,NaN,NaN,NaN,NaN,NaN,NaN,NaN,NaN,NaN,NaN,NaN,NaN,NaN,NaN,NaN,NaN,NaN,NaN,,NaN,NaN,NaN,NaN,NaN,,NaN,NaN,NaN,NaN,NaN,NaN,NaN,,NaN,NaN,NaN,NaN,NaN,NaN,54,1,2020-11-11_08h58.12.776,Pirates_expt3,2020.1.2,Linux x86_64,60,NaN,NaN,NaN,NaN,NaN,NaN,NaN,,NaN,NaN,NaN,NaN,NaN,NaN,,NaN,NaN,NaN,NaN,NaN,NaN,"",,NaN,NaN,NaN,NaN,NaN,NaN,NaN,NaN,NaN,NaN,NaN,NaN,NaN,,NaN,11,0,11,0,1,NaN,,NaN,,NaN,,NaN
NaN,NaN,NaN,NaN,NaN,"",NaN,NaN,"",NaN,NaN,1,1,33,1,1,92,96,0.05,0.1,0.15,0.05,1,92,96,0.05,0.1,0.15,2,3,0,0,1,1,432,13,space,0.35297,0,33,432,13,187,0,,NaN,NaN,NaN,NaN,NaN,NaN,54,1,2020-11-11_08h58.12.776,Pirates_expt3,2020.1.2,Linux x86_64,60,NaN,NaN,NaN,NaN,NaN,NaN,NaN,,NaN,NaN,NaN,NaN,NaN,NaN,,NaN,NaN,NaN,NaN,NaN,NaN,"",,NaN,4,0,4,0,1,3,200,0,200,0,1,199,,NaN,200,0,200,0,1,199,,NaN,,NaN,,NaN
NaN,NaN,NaN,NaN,NaN,"",NaN,NaN,"",NaN,NaN,1,1,30,1,1,93,97,0.05,0.1,0.15,0.05,1,93,97,0.05,0.1,0.15,0,4,0,0,1,1,433,14,0,0,0,30,433,14,186,0,,NaN,NaN,NaN,NaN,NaN,NaN,54,1,2020-11-11_08h58.12.776,Pirates_expt3,2020.1.2,Linux x86_64,60,NaN,NaN,NaN,NaN,NaN,NaN,NaN,,NaN,NaN,NaN,NaN,NaN,NaN,,NaN,NaN,NaN,NaN,NaN,NaN,"",,NaN,4,0,4,0,1,3,200,0,200,0,1,199,,NaN,200,0,200,0,1,199,space,0.35297,,NaN,,NaN
NaN,NaN,NaN,NaN,NaN,"",NaN,NaN,"",NaN,NaN,NaN,NaN,NaN,NaN,NaN,NaN,NaN,NaN,NaN,NaN,NaN,NaN,NaN,NaN,NaN,NaN,NaN,NaN,NaN,,NaN,NaN,NaN,NaN,NaN,,NaN,NaN,NaN,NaN,NaN,NaN,NaN,,NaN,NaN,NaN,NaN,NaN,NaN,54,1,2020-11-11_08h58.12.776,Pirates_expt3,2020.1.2,Linux x86_64,60,NaN,NaN,NaN,NaN,NaN,NaN,NaN,,NaN,NaN,NaN,NaN,NaN,NaN,,NaN,NaN,NaN,NaN,NaN,NaN,"",,NaN,NaN,NaN,NaN,NaN,NaN,NaN,NaN,NaN,NaN,NaN,NaN,NaN,,NaN,12,0,12,0,1,NaN,,NaN,,NaN,,NaN
NaN,NaN,NaN,NaN,NaN,"",NaN,NaN,"",NaN,NaN,1,1,30,1,0,93,97,0.05,0.1,0.15,0.05,0,93,97,0.05,0.1,0.15,2,3,0,0,0,0,433,14,space,0.065535,0,30,433,14,186,0,,NaN,NaN,NaN,NaN,NaN,NaN,54,1,2020-11-11_08h58.12.776,Pirates_expt3,2020.1.2,Linux x86_64,60,NaN,NaN,NaN,NaN,NaN,NaN,NaN,,NaN,NaN,NaN,NaN,NaN,NaN,,NaN,NaN,NaN,NaN,NaN,NaN,"",,NaN,4,0,4,0,1,3,200,0,200,0,1,199,,NaN,200,0,200,0,1,199,,NaN,,NaN,,NaN
NaN,NaN,NaN,NaN,NaN,"",NaN,NaN,"",NaN,NaN,1,1,28,1,0,93,97,0.05,0.1,0.15,0.05,0,93,97,0.05,0.1,0.15,0,4,0,0,0,0,434,15,0,0,0,28,434,15,185,0,,NaN,NaN,NaN,NaN,NaN,NaN,54,1,2020-11-11_08h58.12.776,Pirates_expt3,2020.1.2,Linux x86_64,60,NaN,NaN,NaN,NaN,NaN,NaN,NaN,,NaN,NaN,NaN,NaN,NaN,NaN,,NaN,NaN,NaN,NaN,NaN,NaN,"",,NaN,4,0,4,0,1,3,200,0,200,0,1,199,,NaN,200,0,200,0,1,199,space,0.065535,,NaN,,NaN
NaN,NaN,NaN,NaN,NaN,"",NaN,NaN,"",NaN,NaN,NaN,NaN,NaN,NaN,NaN,NaN,NaN,NaN,NaN,NaN,NaN,NaN,NaN,NaN,NaN,NaN,NaN,NaN,NaN,,NaN,NaN,NaN,NaN,NaN,,NaN,NaN,NaN,NaN,NaN,NaN,NaN,,NaN,NaN,NaN,NaN,NaN,NaN,54,1,2020-11-11_08h58.12.776,Pirates_expt3,2020.1.2,Linux x86_64,60,NaN,NaN,NaN,NaN,NaN,NaN,NaN,,NaN,NaN,NaN,NaN,NaN,NaN,,NaN,NaN,NaN,NaN,NaN,NaN,"",,NaN,NaN,NaN,NaN,NaN,NaN,NaN,NaN,NaN,NaN,NaN,NaN,NaN,,NaN,13,0,13,0,1,NaN,,NaN,,NaN,,NaN
NaN,NaN,NaN,NaN,NaN,"",NaN,NaN,"",NaN,NaN,1,1,28,1,0,93,97,0.05,0.1,0.15,0.05,0,93,97,0.05,0.1,0.15,2,3,0,0,0,0,434,15,space,0.781205,0,28,434,15,185,0,,NaN,NaN,NaN,NaN,NaN,NaN,54,1,2020-11-11_08h58.12.776,Pirates_expt3,2020.1.2,Linux x86_64,60,NaN,NaN,NaN,NaN,NaN,NaN,NaN,,NaN,NaN,NaN,NaN,NaN,NaN,,NaN,NaN,NaN,NaN,NaN,NaN,"",,NaN,4,0,4,0,1,3,200,0,200,0,1,199,,NaN,200,0,200,0,1,199,,NaN,,NaN,,NaN
NaN,NaN,NaN,NaN,NaN,"",NaN,NaN,"",NaN,NaN,1,1,27,1,0,94,97,0.05,0.1,0.15,0.05,0,94,97,0.05,0.1,0.15,0,4,0,0,0,0,434,16,0,0,0,27,434,16,184,0,,NaN,NaN,NaN,NaN,NaN,NaN,54,1,2020-11-11_08h58.12.776,Pirates_expt3,2020.1.2,Linux x86_64,60,NaN,NaN,NaN,NaN,NaN,NaN,NaN,,NaN,NaN,NaN,NaN,NaN,NaN,,NaN,NaN,NaN,NaN,NaN,NaN,"",,NaN,4,0,4,0,1,3,200,0,200,0,1,199,,NaN,200,0,200,0,1,199,space,0.781205,,NaN,,NaN
NaN,NaN,NaN,NaN,NaN,"",NaN,NaN,"",NaN,NaN,NaN,NaN,NaN,NaN,NaN,NaN,NaN,NaN,NaN,NaN,NaN,NaN,NaN,NaN,NaN,NaN,NaN,NaN,NaN,,NaN,NaN,NaN,NaN,NaN,,NaN,NaN,NaN,NaN,NaN,NaN,NaN,,NaN,NaN,NaN,NaN,NaN,NaN,54,1,2020-11-11_08h58.12.776,Pirates_expt3,2020.1.2,Linux x86_64,60,NaN,NaN,NaN,NaN,NaN,NaN,NaN,,NaN,NaN,NaN,NaN,NaN,NaN,,NaN,NaN,NaN,NaN,NaN,NaN,"",,NaN,NaN,NaN,NaN,NaN,NaN,NaN,NaN,NaN,NaN,NaN,NaN,NaN,,NaN,14,0,14,0,1,NaN,,NaN,,NaN,,NaN
NaN,NaN,NaN,NaN,NaN,"",NaN,NaN,"",NaN,NaN,1,1,27,1,0,94,97,0.05,0.1,0.15,0.05,0,94,97,0.05,0.1,0.15,3,3,0,0,0,0,434,16,s,0.078905,15,27,434,16,184,0,,NaN,NaN,NaN,NaN,NaN,NaN,54,1,2020-11-11_08h58.12.776,Pirates_expt3,2020.1.2,Linux x86_64,60,NaN,NaN,NaN,NaN,NaN,NaN,NaN,,NaN,NaN,NaN,NaN,NaN,NaN,,NaN,NaN,NaN,NaN,NaN,NaN,"",,NaN,4,0,4,0,1,3,200,0,200,0,1,199,,NaN,200,0,200,0,1,199,,NaN,,NaN,,NaN
NaN,NaN,NaN,NaN,NaN,"",NaN,NaN,"",NaN,NaN,1,1,25,1,5,94,98,0.05,0.1,0.15,0.05,5,94,98,0.05,0.1,0.15,0,4,0,0,5,0,434,17,0,0,0,25,434,17,183,31.245,,NaN,NaN,NaN,NaN,NaN,NaN,54,1,2020-11-11_08h58.12.776,Pirates_expt3,2020.1.2,Linux x86_64,60,NaN,NaN,NaN,NaN,NaN,NaN,NaN,,NaN,NaN,NaN,NaN,NaN,NaN,,NaN,NaN,NaN,NaN,NaN,NaN,"",,NaN,4,0,4,0,1,3,200,0,200,0,1,199,,NaN,200,0,200,0,1,199,s,0.078905,,NaN,,NaN
NaN,NaN,NaN,NaN,NaN,"",NaN,NaN,"",NaN,NaN,NaN,NaN,NaN,NaN,NaN,NaN,NaN,NaN,NaN,NaN,NaN,NaN,NaN,NaN,NaN,NaN,NaN,NaN,NaN,,NaN,NaN,NaN,NaN,NaN,,NaN,NaN,NaN,NaN,NaN,NaN,NaN,,NaN,NaN,NaN,NaN,NaN,NaN,54,1,2020-11-11_08h58.12.776,Pirates_expt3,2020.1.2,Linux x86_64,60,NaN,NaN,NaN,NaN,NaN,NaN,NaN,,NaN,NaN,NaN,NaN,NaN,NaN,,NaN,NaN,NaN,NaN,NaN,NaN,"",,NaN,NaN,NaN,NaN,NaN,NaN,NaN,0,0,0,0,1,NaN,,NaN,NaN,NaN,NaN,NaN,NaN,NaN,,NaN,,NaN,,NaN
NaN,NaN,NaN,NaN,NaN,"",NaN,NaN,"",NaN,NaN,1,1,25,3,5,94,98,0.05,0.1,0.15,0.15,5,94,98,0.05,0.1,0.15,1,1,k,1.97401,0,0,434,18,N/A,0,0,25,434,18,182,0,,NaN,NaN,NaN,NaN,NaN,NaN,54,1,2020-11-11_08h58.12.776,Pirates_expt3,2020.1.2,Linux x86_64,60,NaN,NaN,NaN,NaN,NaN,NaN,NaN,,NaN,NaN,NaN,NaN,NaN,NaN,,NaN,NaN,NaN,NaN,NaN,NaN,"",,NaN,4,0,4,0,1,3,200,0,200,0,1,199,,NaN,NaN,NaN,NaN,NaN,NaN,NaN,,NaN,,NaN,,NaN
NaN,NaN,NaN,NaN,NaN,"",NaN,NaN,"",NaN,NaN,1,1,25,3,9,95,98,0.05,0.1,0.15,0.15,9,95,98,0.05,0.1,0.15,0,2,0,0,0,0,434,18,N/A,0,0,25,434,18,182,0,,NaN,NaN,NaN,NaN,NaN,NaN,54,1,2020-11-11_08h58.12.776,Pirates_expt3,2020.1.2,Linux x86_64,60,NaN,NaN,NaN,NaN,NaN,NaN,NaN,,NaN,NaN,NaN,NaN,NaN,NaN,,NaN,NaN,NaN,NaN,NaN,NaN,"",,NaN,4,0,4,0,1,3,200,0,200,0,1,199,k,1.97401,NaN,NaN,NaN,NaN,NaN,NaN,,NaN,,NaN,,NaN
NaN,NaN,NaN,NaN,NaN,"",NaN,NaN,"",NaN,NaN,1,1,24,3,9,95,98,0.05,0.1,0.15,0.15,9,95,98,0.05,0.1,0.15,2,3,0,0,98,98,434,18,space,1.293695,0,24,434,18,182,0,,NaN,NaN,NaN,NaN,NaN,NaN,54,1,2020-11-11_08h58.12.776,Pirates_expt3,2020.1.2,Linux x86_64,60,NaN,NaN,NaN,NaN,NaN,NaN,NaN,,NaN,NaN,NaN,NaN,NaN,NaN,,NaN,NaN,NaN,NaN,NaN,NaN,"",,NaN,4,0,4,0,1,3,200,0,200,0,1,199,,NaN,200,0,200,0,1,199,,NaN,,NaN,,NaN
NaN,NaN,NaN,NaN,NaN,"",NaN,NaN,"",NaN,NaN,1,1,28,3,14,95,98,0.05,0.1,0.15,0.15,14,95,98,0.05,0.1,0.15,0,4,0,0,98,98,533,19,0,0,0,28,533,19,181,0,,NaN,NaN,NaN,NaN,NaN,NaN,54,1,2020-11-11_08h58.12.776,Pirates_expt3,2020.1.2,Linux x86_64,60,NaN,NaN,NaN,NaN,NaN,NaN,NaN,,NaN,NaN,NaN,NaN,NaN,NaN,,NaN,NaN,NaN,NaN,NaN,NaN,"",,NaN,4,0,4,0,1,3,200,0,200,0,1,199,,NaN,200,0,200,0,1,199,space,1.293695,,NaN,,NaN
NaN,NaN,NaN,NaN,NaN,"",NaN,NaN,"",NaN,NaN,NaN,NaN,NaN,NaN,NaN,NaN,NaN,NaN,NaN,NaN,NaN,NaN,NaN,NaN,NaN,NaN,NaN,NaN,NaN,,NaN,NaN,NaN,NaN,NaN,,NaN,NaN,NaN,NaN,NaN,NaN,NaN,,NaN,NaN,NaN,NaN,NaN,NaN,54,1,2020-11-11_08h58.12.776,Pirates_expt3,2020.1.2,Linux x86_64,60,NaN,NaN,NaN,NaN,NaN,NaN,NaN,,NaN,NaN,NaN,NaN,NaN,NaN,,NaN,NaN,NaN,NaN,NaN,NaN,"",,NaN,NaN,NaN,NaN,NaN,NaN,NaN,NaN,NaN,NaN,NaN,NaN,NaN,,NaN,0,0,0,0,1,NaN,,NaN,,NaN,,NaN
NaN,NaN,NaN,NaN,NaN,"",NaN,NaN,"",NaN,NaN,1,1,28,3,14,95,93,0.05,0.1,0.15,0.15,14,95,93,0.05,0.1,0.15,2,3,0,0,93,93,533,19,space,0.483515,0,28,533,19,181,0,,NaN,NaN,NaN,NaN,NaN,NaN,54,1,2020-11-11_08h58.12.776,Pirates_expt3,2020.1.2,Linux x86_64,60,NaN,NaN,NaN,NaN,NaN,NaN,NaN,,NaN,NaN,NaN,NaN,NaN,NaN,,NaN,NaN,NaN,NaN,NaN,NaN,"",,NaN,4,0,4,0,1,3,200,0,200,0,1,199,,NaN,200,0,200,0,1,199,,NaN,,NaN,,NaN
NaN,NaN,NaN,NaN,NaN,"",NaN,NaN,"",NaN,NaN,1,1,31,3,18,96,93,0.05,0.1,0.15,0.15,18,96,93,0.05,0.1,0.15,0,4,0,0,93,93,627,20,0,0,0,31,627,20,180,0,,NaN,NaN,NaN,NaN,NaN,NaN,54,1,2020-11-11_08h58.12.776,Pirates_expt3,2020.1.2,Linux x86_64,60,NaN,NaN,NaN,NaN,NaN,NaN,NaN,,NaN,NaN,NaN,NaN,NaN,NaN,,NaN,NaN,NaN,NaN,NaN,NaN,"",,NaN,4,0,4,0,1,3,200,0,200,0,1,199,,NaN,200,0,200,0,1,199,space,0.483515,,NaN,,NaN
NaN,NaN,NaN,NaN,NaN,"",NaN,NaN,"",NaN,NaN,NaN,NaN,NaN,NaN,NaN,NaN,NaN,NaN,NaN,NaN,NaN,NaN,NaN,NaN,NaN,NaN,NaN,NaN,NaN,,NaN,NaN,NaN,NaN,NaN,,NaN,NaN,NaN,NaN,NaN,NaN,NaN,,NaN,NaN,NaN,NaN,NaN,NaN,54,1,2020-11-11_08h58.12.776,Pirates_expt3,2020.1.2,Linux x86_64,60,NaN,NaN,NaN,NaN,NaN,NaN,NaN,,NaN,NaN,NaN,NaN,NaN,NaN,,NaN,NaN,NaN,NaN,NaN,NaN,"",,NaN,NaN,NaN,NaN,NaN,NaN,NaN,NaN,NaN,NaN,NaN,NaN,NaN,,NaN,1,0,1,0,1,NaN,,NaN,,NaN,,NaN
NaN,NaN,NaN,NaN,NaN,"",NaN,NaN,"",NaN,NaN,1,1,31,3,18,96,84,0.05,0.1,0.15,0.15,18,96,84,0.05,0.1,0.15,2,3,0,0,84,84,627,20,space,0.034675,0,31,627,20,180,0,,NaN,NaN,NaN,NaN,NaN,NaN,54,1,2020-11-11_08h58.12.776,Pirates_expt3,2020.1.2,Linux x86_64,60,NaN,NaN,NaN,NaN,NaN,NaN,NaN,,NaN,NaN,NaN,NaN,NaN,NaN,,NaN,NaN,NaN,NaN,NaN,NaN,"",,NaN,4,0,4,0,1,3,200,0,200,0,1,199,,NaN,200,0,200,0,1,199,,NaN,,NaN,,NaN
NaN,NaN,NaN,NaN,NaN,"",NaN,NaN,"",NaN,NaN,1,1,33,3,22,96,84,0.05,0.1,0.15,0.15,22,96,84,0.05,0.1,0.15,0,4,0,0,84,84,711,21,0,0,0,33,711,21,179,0,,NaN,NaN,NaN,NaN,NaN,NaN,54,1,2020-11-11_08h58.12.776,Pirates_expt3,2020.1.2,Linux x86_64,60,NaN,NaN,NaN,NaN,NaN,NaN,NaN,,NaN,NaN,NaN,NaN,NaN,NaN,,NaN,NaN,NaN,NaN,NaN,NaN,"",,NaN,4,0,4,0,1,3,200,0,200,0,1,199,,NaN,200,0,200,0,1,199,space,0.034675,,NaN,,NaN
NaN,NaN,NaN,NaN,NaN,"",NaN,NaN,"",NaN,NaN,NaN,NaN,NaN,NaN,NaN,NaN,NaN,NaN,NaN,NaN,NaN,NaN,NaN,NaN,NaN,NaN,NaN,NaN,NaN,,NaN,NaN,NaN,NaN,NaN,,NaN,NaN,NaN,NaN,NaN,NaN,NaN,,NaN,NaN,NaN,NaN,NaN,NaN,54,1,2020-11-11_08h58.12.776,Pirates_expt3,2020.1.2,Linux x86_64,60,NaN,NaN,NaN,NaN,NaN,NaN,NaN,,NaN,NaN,NaN,NaN,NaN,NaN,,NaN,NaN,NaN,NaN,NaN,NaN,"",,NaN,NaN,NaN,NaN,NaN,NaN,NaN,NaN,NaN,NaN,NaN,NaN,NaN,,NaN,2,0,2,0,1,NaN,,NaN,,NaN,,NaN
NaN,NaN,NaN,NaN,NaN,"",NaN,NaN,"",NaN,NaN,1,1,33,3,22,96,72,0.05,0.1,0.15,0.15,22,96,72,0.05,0.1,0.15,3,3,0,0,72,72,711,21,s,0.48655,3,33,711,21,179,0,,NaN,NaN,NaN,NaN,NaN,NaN,54,1,2020-11-11_08h58.12.776,Pirates_expt3,2020.1.2,Linux x86_64,60,NaN,NaN,NaN,NaN,NaN,NaN,NaN,,NaN,NaN,NaN,NaN,NaN,NaN,,NaN,NaN,NaN,NaN,NaN,NaN,"",,NaN,4,0,4,0,1,3,200,0,200,0,1,199,,NaN,200,0,200,0,1,199,,NaN,,NaN,,NaN
NaN,NaN,NaN,NaN,NaN,"",NaN,NaN,"",NaN,NaN,1,1,32,3,26,97,76,0.05,0.1,0.15,0.15,26,97,76,0.05,0.1,0.15,0,4,0,0,76,72,711,22,0,0,0,32,711,22,178,7.022,,NaN,NaN,NaN,NaN,NaN,NaN,54,1,2020-11-11_08h58.12.776,Pirates_expt3,2020.1.2,Linux x86_64,60,NaN,NaN,NaN,NaN,NaN,NaN,NaN,,NaN,NaN,NaN,NaN,NaN,NaN,,NaN,NaN,NaN,NaN,NaN,NaN,"",,NaN,4,0,4,0,1,3,200,0,200,0,1,199,,NaN,200,0,200,0,1,199,s,0.48655,,NaN,,NaN
NaN,NaN,NaN,NaN,NaN,"",NaN,NaN,"",NaN,NaN,NaN,NaN,NaN,NaN,NaN,NaN,NaN,NaN,NaN,NaN,NaN,NaN,NaN,NaN,NaN,NaN,NaN,NaN,NaN,,NaN,NaN,NaN,NaN,NaN,,NaN,NaN,NaN,NaN,NaN,NaN,NaN,,NaN,NaN,NaN,NaN,NaN,NaN,54,1,2020-11-11_08h58.12.776,Pirates_expt3,2020.1.2,Linux x86_64,60,NaN,NaN,NaN,NaN,NaN,NaN,NaN,,NaN,NaN,NaN,NaN,NaN,NaN,,NaN,NaN,NaN,NaN,NaN,NaN,"",,NaN,NaN,NaN,NaN,NaN,NaN,NaN,1,0,1,0,1,NaN,,NaN,NaN,NaN,NaN,NaN,NaN,NaN,,NaN,,NaN,,NaN
NaN,NaN,NaN,NaN,NaN,"",NaN,NaN,"",NaN,NaN,1,1,32,2,26,97,76,0.05,0.1,0.15,0.1,26,97,76,0.05,0.1,0.15,1,1,j,1.61813,0,0,711,23,N/A,0,0,32,711,23,177,0,,NaN,NaN,NaN,NaN,NaN,NaN,54,1,2020-11-11_08h58.12.776,Pirates_expt3,2020.1.2,Linux x86_64,60,NaN,NaN,NaN,NaN,NaN,NaN,NaN,,NaN,NaN,NaN,NaN,NaN,NaN,,NaN,NaN,NaN,NaN,NaN,NaN,"",,NaN,4,0,4,0,1,3,200,0,200,0,1,199,,NaN,NaN,NaN,NaN,NaN,NaN,NaN,,NaN,,NaN,,NaN
NaN,NaN,NaN,NaN,NaN,"",NaN,NaN,"",NaN,NaN,1,1,32,2,30,97,80,0.05,0.1,0.15,0.1,30,97,80,0.05,0.1,0.15,0,2,0,0,0,0,711,23,N/A,0,0,32,711,23,177,0,,NaN,NaN,NaN,NaN,NaN,NaN,54,1,2020-11-11_08h58.12.776,Pirates_expt3,2020.1.2,Linux x86_64,60,NaN,NaN,NaN,NaN,NaN,NaN,NaN,,NaN,NaN,NaN,NaN,NaN,NaN,,NaN,NaN,NaN,NaN,NaN,NaN,"",,NaN,4,0,4,0,1,3,200,0,200,0,1,199,j,1.61813,NaN,NaN,NaN,NaN,NaN,NaN,,NaN,,NaN,,NaN
NaN,NaN,NaN,NaN,NaN,"",NaN,NaN,"",NaN,NaN,1,1,30,2,30,97,80,0.05,0.1,0.15,0.1,30,97,80,0.05,0.1,0.15,2,3,0,0,97,97,711,23,space,0.873105,0,30,711,23,177,0,,NaN,NaN,NaN,NaN,NaN,NaN,54,1,2020-11-11_08h58.12.776,Pirates_expt3,2020.1.2,Linux x86_64,60,NaN,NaN,NaN,NaN,NaN,NaN,NaN,,NaN,NaN,NaN,NaN,NaN,NaN,,NaN,NaN,NaN,NaN,NaN,NaN,"",,NaN,4,0,4,0,1,3,200,0,200,0,1,199,,NaN,200,0,200,0,1,199,,NaN,,NaN,,NaN
NaN,NaN,NaN,NaN,NaN,"",NaN,NaN,"",NaN,NaN,1,1,33,2,33,97,83,0.05,0.1,0.15,0.1,33,97,83,0.05,0.1,0.15,0,4,0,0,97,97,808,24,0,0,0,33,808,24,176,0,,NaN,NaN,NaN,NaN,NaN,NaN,54,1,2020-11-11_08h58.12.776,Pirates_expt3,2020.1.2,Linux x86_64,60,NaN,NaN,NaN,NaN,NaN,NaN,NaN,,NaN,NaN,NaN,NaN,NaN,NaN,,NaN,NaN,NaN,NaN,NaN,NaN,"",,NaN,4,0,4,0,1,3,200,0,200,0,1,199,,NaN,200,0,200,0,1,199,space,0.873105,,NaN,,NaN
NaN,NaN,NaN,NaN,NaN,"",NaN,NaN,"",NaN,NaN,NaN,NaN,NaN,NaN,NaN,NaN,NaN,NaN,NaN,NaN,NaN,NaN,NaN,NaN,NaN,NaN,NaN,NaN,NaN,,NaN,NaN,NaN,NaN,NaN,,NaN,NaN,NaN,NaN,NaN,NaN,NaN,,NaN,NaN,NaN,NaN,NaN,NaN,54,1,2020-11-11_08h58.12.776,Pirates_expt3,2020.1.2,Linux x86_64,60,NaN,NaN,NaN,NaN,NaN,NaN,NaN,,NaN,NaN,NaN,NaN,NaN,NaN,,NaN,NaN,NaN,NaN,NaN,NaN,"",,NaN,NaN,NaN,NaN,NaN,NaN,NaN,NaN,NaN,NaN,NaN,NaN,NaN,,NaN,0,0,0,0,1,NaN,,NaN,,NaN,,NaN
NaN,NaN,NaN,NaN,NaN,"",NaN,NaN,"",NaN,NaN,1,1,33,2,33,92,83,0.05,0.1,0.15,0.1,33,92,83,0.05,0.1,0.15,3,3,0,0,92,92,808,24,s,0.03283,1,33,808,24,176,0,,NaN,NaN,NaN,NaN,NaN,NaN,54,1,2020-11-11_08h58.12.776,Pirates_expt3,2020.1.2,Linux x86_64,60,NaN,NaN,NaN,NaN,NaN,NaN,NaN,,NaN,NaN,NaN,NaN,NaN,NaN,,NaN,NaN,NaN,NaN,NaN,NaN,"",,NaN,4,0,4,0,1,3,200,0,200,0,1,199,,NaN,200,0,200,0,1,199,,NaN,,NaN,,NaN
NaN,NaN,NaN,NaN,NaN,"",NaN,NaN,"",NaN,NaN,1,1,32,2,37,93,85,0.05,0.1,0.15,0.1,37,93,85,0.05,0.1,0.15,0,4,0,0,93,92,808,25,0,0,0,32,808,25,175,2.513,,NaN,NaN,NaN,NaN,NaN,NaN,54,1,2020-11-11_08h58.12.776,Pirates_expt3,2020.1.2,Linux x86_64,60,NaN,NaN,NaN,NaN,NaN,NaN,NaN,,NaN,NaN,NaN,NaN,NaN,NaN,,NaN,NaN,NaN,NaN,NaN,NaN,"",,NaN,4,0,4,0,1,3,200,0,200,0,1,199,,NaN,200,0,200,0,1,199,s,0.03283,,NaN,,NaN
NaN,NaN,NaN,NaN,NaN,"",NaN,NaN,"",NaN,NaN,NaN,NaN,NaN,NaN,NaN,NaN,NaN,NaN,NaN,NaN,NaN,NaN,NaN,NaN,NaN,NaN,NaN,NaN,NaN,,NaN,NaN,NaN,NaN,NaN,,NaN,NaN,NaN,NaN,NaN,NaN,NaN,,NaN,NaN,NaN,NaN,NaN,NaN,54,1,2020-11-11_08h58.12.776,Pirates_expt3,2020.1.2,Linux x86_64,60,NaN,NaN,NaN,NaN,NaN,NaN,NaN,,NaN,NaN,NaN,NaN,NaN,NaN,,NaN,NaN,NaN,NaN,NaN,NaN,"",,NaN,NaN,NaN,NaN,NaN,NaN,NaN,2,0,2,0,1,NaN,,NaN,NaN,NaN,NaN,NaN,NaN,NaN,,NaN,,NaN,,NaN
NaN,NaN,NaN,NaN,NaN,"",NaN,NaN,"",NaN,NaN,1,1,32,3,37,93,85,0.05,0.1,0.15,0.15,37,93,85,0.05,0.1,0.15,1,1,k,2.26545,0,0,808,26,N/A,0,0,32,808,26,174,0,,NaN,NaN,NaN,NaN,NaN,NaN,54,1,2020-11-11_08h58.12.776,Pirates_expt3,2020.1.2,Linux x86_64,60,NaN,NaN,NaN,NaN,NaN,NaN,NaN,,NaN,NaN,NaN,NaN,NaN,NaN,,NaN,NaN,NaN,NaN,NaN,NaN,"",,NaN,4,0,4,0,1,3,200,0,200,0,1,199,,NaN,NaN,NaN,NaN,NaN,NaN,NaN,,NaN,,NaN,,NaN
NaN,NaN,NaN,NaN,NaN,"",NaN,NaN,"",NaN,NaN,1,1,32,3,40,93,87,0.05,0.1,0.15,0.15,40,93,87,0.05,0.1,0.15,0,2,0,0,0,0,808,26,N/A,0,0,32,808,26,174,0,,NaN,NaN,NaN,NaN,NaN,NaN,54,1,2020-11-11_08h58.12.776,Pirates_expt3,2020.1.2,Linux x86_64,60,NaN,NaN,NaN,NaN,NaN,NaN,NaN,,NaN,NaN,NaN,NaN,NaN,NaN,,NaN,NaN,NaN,NaN,NaN,NaN,"",,NaN,4,0,4,0,1,3,200,0,200,0,1,199,k,2.26545,NaN,NaN,NaN,NaN,NaN,NaN,,NaN,,NaN,,NaN
NaN,NaN,NaN,NaN,NaN,"",NaN,NaN,"",NaN,NaN,1,1,31,3,40,93,87,0.05,0.1,0.15,0.15,40,93,87,0.05,0.1,0.15,2,3,0,0,87,87,808,26,space,1.359625,0,31,808,26,174,0,,NaN,NaN,NaN,NaN,NaN,NaN,54,1,2020-11-11_08h58.12.776,Pirates_expt3,2020.1.2,Linux x86_64,60,NaN,NaN,NaN,NaN,NaN,NaN,NaN,,NaN,NaN,NaN,NaN,NaN,NaN,,NaN,NaN,NaN,NaN,NaN,NaN,"",,NaN,4,0,4,0,1,3,200,0,200,0,1,199,,NaN,200,0,200,0,1,199,,NaN,,NaN,,NaN
NaN,NaN,NaN,NaN,NaN,"",NaN,NaN,"",NaN,NaN,1,1,33,3,43,94,87,0.05,0.1,0.15,0.15,43,94,87,0.05,0.1,0.15,0,4,0,0,87,87,896,27,0,0,0,33,896,27,173,0,,NaN,NaN,NaN,NaN,NaN,NaN,54,1,2020-11-11_08h58.12.776,Pirates_expt3,2020.1.2,Linux x86_64,60,NaN,NaN,NaN,NaN,NaN,NaN,NaN,,NaN,NaN,NaN,NaN,NaN,NaN,,NaN,NaN,NaN,NaN,NaN,NaN,"",,NaN,4,0,4,0,1,3,200,0,200,0,1,199,,NaN,200,0,200,0,1,199,space,1.359625,,NaN,,NaN
NaN,NaN,NaN,NaN,NaN,"",NaN,NaN,"",NaN,NaN,NaN,NaN,NaN,NaN,NaN,NaN,NaN,NaN,NaN,NaN,NaN,NaN,NaN,NaN,NaN,NaN,NaN,NaN,NaN,,NaN,NaN,NaN,NaN,NaN,,NaN,NaN,NaN,NaN,NaN,NaN,NaN,,NaN,NaN,NaN,NaN,NaN,NaN,54,1,2020-11-11_08h58.12.776,Pirates_expt3,2020.1.2,Linux x86_64,60,NaN,NaN,NaN,NaN,NaN,NaN,NaN,,NaN,NaN,NaN,NaN,NaN,NaN,,NaN,NaN,NaN,NaN,NaN,NaN,"",,NaN,NaN,NaN,NaN,NaN,NaN,NaN,NaN,NaN,NaN,NaN,NaN,NaN,,NaN,0,0,0,0,1,NaN,,NaN,,NaN,,NaN
NaN,NaN,NaN,NaN,NaN,"",NaN,NaN,"",NaN,NaN,1,1,33,3,43,94,83,0.05,0.1,0.15,0.15,43,94,83,0.05,0.1,0.15,2,3,0,0,83,83,896,27,space,0.003715,0,33,896,27,173,0,,NaN,NaN,NaN,NaN,NaN,NaN,54,1,2020-11-11_08h58.12.776,Pirates_expt3,2020.1.2,Linux x86_64,60,NaN,NaN,NaN,NaN,NaN,NaN,NaN,,NaN,NaN,NaN,NaN,NaN,NaN,,NaN,NaN,NaN,NaN,NaN,NaN,"",,NaN,4,0,4,0,1,3,200,0,200,0,1,199,,NaN,200,0,200,0,1,199,,NaN,,NaN,,NaN
NaN,NaN,NaN,NaN,NaN,"",NaN,NaN,"",NaN,NaN,1,1,34,3,46,95,83,0.05,0.1,0.15,0.15,46,95,83,0.05,0.1,0.15,0,4,0,0,83,83,979,28,0,0,0,34,979,28,172,0,,NaN,NaN,NaN,NaN,NaN,NaN,54,1,2020-11-11_08h58.12.776,Pirates_expt3,2020.1.2,Linux x86_64,60,NaN,NaN,NaN,NaN,NaN,NaN,NaN,,NaN,NaN,NaN,NaN,NaN,NaN,,NaN,NaN,NaN,NaN,NaN,NaN,"",,NaN,4,0,4,0,1,3,200,0,200,0,1,199,,NaN,200,0,200,0,1,199,space,0.003715,,NaN,,NaN
NaN,NaN,NaN,NaN,NaN,"",NaN,NaN,"",NaN,NaN,NaN,NaN,NaN,NaN,NaN,NaN,NaN,NaN,NaN,NaN,NaN,NaN,NaN,NaN,NaN,NaN,NaN,NaN,NaN,,NaN,NaN,NaN,NaN,NaN,,NaN,NaN,NaN,NaN,NaN,NaN,NaN,,NaN,NaN,NaN,NaN,NaN,NaN,54,1,2020-11-11_08h58.12.776,Pirates_expt3,2020.1.2,Linux x86_64,60,NaN,NaN,NaN,NaN,NaN,NaN,NaN,,NaN,NaN,NaN,NaN,NaN,NaN,,NaN,NaN,NaN,NaN,NaN,NaN,"",,NaN,NaN,NaN,NaN,NaN,NaN,NaN,NaN,NaN,NaN,NaN,NaN,NaN,,NaN,1,0,1,0,1,NaN,,NaN,,NaN,,NaN
NaN,NaN,NaN,NaN,NaN,"",NaN,NaN,"",NaN,NaN,1,1,34,3,46,95,75,0.05,0.1,0.15,0.15,46,95,75,0.05,0.1,0.15,3,3,0,0,75,75,979,28,s,0.29386,2,34,979,28,172,0,,NaN,NaN,NaN,NaN,NaN,NaN,54,1,2020-11-11_08h58.12.776,Pirates_expt3,2020.1.2,Linux x86_64,60,NaN,NaN,NaN,NaN,NaN,NaN,NaN,,NaN,NaN,NaN,NaN,NaN,NaN,,NaN,NaN,NaN,NaN,NaN,NaN,"",,NaN,4,0,4,0,1,3,200,0,200,0,1,199,,NaN,200,0,200,0,1,199,,NaN,,NaN,,NaN
NaN,NaN,NaN,NaN,NaN,"",NaN,NaN,"",NaN,NaN,1,1,33,3,48,95,78,0.05,0.1,0.15,0.15,48,95,78,0.05,0.1,0.15,0,4,0,0,78,75,979,29,0,0,0,33,979,29,171,4.808,,NaN,NaN,NaN,NaN,NaN,NaN,54,1,2020-11-11_08h58.12.776,Pirates_expt3,2020.1.2,Linux x86_64,60,NaN,NaN,NaN,NaN,NaN,NaN,NaN,,NaN,NaN,NaN,NaN,NaN,NaN,,NaN,NaN,NaN,NaN,NaN,NaN,"",,NaN,4,0,4,0,1,3,200,0,200,0,1,199,,NaN,200,0,200,0,1,199,s,0.29386,,NaN,,NaN
NaN,NaN,NaN,NaN,NaN,"",NaN,NaN,"",NaN,NaN,NaN,NaN,NaN,NaN,NaN,NaN,NaN,NaN,NaN,NaN,NaN,NaN,NaN,NaN,NaN,NaN,NaN,NaN,NaN,,NaN,NaN,NaN,NaN,NaN,,NaN,NaN,NaN,NaN,NaN,NaN,NaN,,NaN,NaN,NaN,NaN,NaN,NaN,54,1,2020-11-11_08h58.12.776,Pirates_expt3,2020.1.2,Linux x86_64,60,NaN,NaN,NaN,NaN,NaN,NaN,NaN,,NaN,NaN,NaN,NaN,NaN,NaN,,NaN,NaN,NaN,NaN,NaN,NaN,"",,NaN,NaN,NaN,NaN,NaN,NaN,NaN,3,0,3,0,1,NaN,,NaN,NaN,NaN,NaN,NaN,NaN,NaN,,NaN,,NaN,,NaN
NaN,NaN,NaN,NaN,NaN,"",NaN,NaN,"",NaN,NaN,1,1,33,2,48,95,78,0.05,0.1,0.15,0.1,48,95,78,0.05,0.1,0.15,1,1,j,1.289115,0,0,979,30,N/A,0,0,33,979,30,170,0,,NaN,NaN,NaN,NaN,NaN,NaN,54,1,2020-11-11_08h58.12.776,Pirates_expt3,2020.1.2,Linux x86_64,60,NaN,NaN,NaN,NaN,NaN,NaN,NaN,,NaN,NaN,NaN,NaN,NaN,NaN,,NaN,NaN,NaN,NaN,NaN,NaN,"",,NaN,4,0,4,0,1,3,200,0,200,0,1,199,,NaN,NaN,NaN,NaN,NaN,NaN,NaN,,NaN,,NaN,,NaN
NaN,NaN,NaN,NaN,NaN,"",NaN,NaN,"",NaN,NaN,1,1,33,2,51,96,82,0.05,0.1,0.15,0.1,51,96,82,0.05,0.1,0.15,0,2,0,0,0,0,979,30,N/A,0,0,33,979,30,170,0,,NaN,NaN,NaN,NaN,NaN,NaN,54,1,2020-11-11_08h58.12.776,Pirates_expt3,2020.1.2,Linux x86_64,60,NaN,NaN,NaN,NaN,NaN,NaN,NaN,,NaN,NaN,NaN,NaN,NaN,NaN,,NaN,NaN,NaN,NaN,NaN,NaN,"",,NaN,4,0,4,0,1,3,200,0,200,0,1,199,j,1.289115,NaN,NaN,NaN,NaN,NaN,NaN,,NaN,,NaN,,NaN
NaN,NaN,NaN,NaN,NaN,"",NaN,NaN,"",NaN,NaN,1,1,32,2,51,96,82,0.05,0.1,0.15,0.1,51,96,82,0.05,0.1,0.15,2,3,0,0,96,96,979,30,space,0.703705,0,32,979,30,170,0,,NaN,NaN,NaN,NaN,NaN,NaN,54,1,2020-11-11_08h58.12.776,Pirates_expt3,2020.1.2,Linux x86_64,60,NaN,NaN,NaN,NaN,NaN,NaN,NaN,,NaN,NaN,NaN,NaN,NaN,NaN,,NaN,NaN,NaN,NaN,NaN,NaN,"",,NaN,4,0,4,0,1,3,200,0,200,0,1,199,,NaN,200,0,200,0,1,199,,NaN,,NaN,,NaN
NaN,NaN,NaN,NaN,NaN,"",NaN,NaN,"",NaN,NaN,1,1,34,2,53,96,84,0.05,0.1,0.15,0.1,53,96,84,0.05,0.1,0.15,0,4,0,0,96,96,1075,31,0,0,0,34,1075,31,169,0,,NaN,NaN,NaN,NaN,NaN,NaN,54,1,2020-11-11_08h58.12.776,Pirates_expt3,2020.1.2,Linux x86_64,60,NaN,NaN,NaN,NaN,NaN,NaN,NaN,,NaN,NaN,NaN,NaN,NaN,NaN,,NaN,NaN,NaN,NaN,NaN,NaN,"",,NaN,4,0,4,0,1,3,200,0,200,0,1,199,,NaN,200,0,200,0,1,199,space,0.703705,,NaN,,NaN
NaN,NaN,NaN,NaN,NaN,"",NaN,NaN,"",NaN,NaN,NaN,NaN,NaN,NaN,NaN,NaN,NaN,NaN,NaN,NaN,NaN,NaN,NaN,NaN,NaN,NaN,NaN,NaN,NaN,,NaN,NaN,NaN,NaN,NaN,,NaN,NaN,NaN,NaN,NaN,NaN,NaN,,NaN,NaN,NaN,NaN,NaN,NaN,54,1,2020-11-11_08h58.12.776,Pirates_expt3,2020.1.2,Linux x86_64,60,NaN,NaN,NaN,NaN,NaN,NaN,NaN,,NaN,NaN,NaN,NaN,NaN,NaN,,NaN,NaN,NaN,NaN,NaN,NaN,"",,NaN,NaN,NaN,NaN,NaN,NaN,NaN,NaN,NaN,NaN,NaN,NaN,NaN,,NaN,0,0,0,0,1,NaN,,NaN,,NaN,,NaN
NaN,NaN,NaN,NaN,NaN,"",NaN,NaN,"",NaN,NaN,1,1,34,2,53,91,84,0.05,0.1,0.15,0.1,53,91,84,0.05,0.1,0.15,2,3,0,0,91,91,1075,31,space,0.04797,0,34,1075,31,169,0,,NaN,NaN,NaN,NaN,NaN,NaN,54,1,2020-11-11_08h58.12.776,Pirates_expt3,2020.1.2,Linux x86_64,60,NaN,NaN,NaN,NaN,NaN,NaN,NaN,,NaN,NaN,NaN,NaN,NaN,NaN,,NaN,NaN,NaN,NaN,NaN,NaN,"",,NaN,4,0,4,0,1,3,200,0,200,0,1,199,,NaN,200,0,200,0,1,199,,NaN,,NaN,,NaN
NaN,NaN,NaN,NaN,NaN,"",NaN,NaN,"",NaN,NaN,1,1,36,2,56,91,87,0.05,0.1,0.15,0.1,56,91,87,0.05,0.1,0.15,0,4,0,0,91,91,1167,32,0,0,0,36,1167,32,168,0,,NaN,NaN,NaN,NaN,NaN,NaN,54,1,2020-11-11_08h58.12.776,Pirates_expt3,2020.1.2,Linux x86_64,60,NaN,NaN,NaN,NaN,NaN,NaN,NaN,,NaN,NaN,NaN,NaN,NaN,NaN,,NaN,NaN,NaN,NaN,NaN,NaN,"",,NaN,4,0,4,0,1,3,200,0,200,0,1,199,,NaN,200,0,200,0,1,199,space,0.04797,,NaN,,NaN
NaN,NaN,NaN,NaN,NaN,"",NaN,NaN,"",NaN,NaN,NaN,NaN,NaN,NaN,NaN,NaN,NaN,NaN,NaN,NaN,NaN,NaN,NaN,NaN,NaN,NaN,NaN,NaN,NaN,,NaN,NaN,NaN,NaN,NaN,,NaN,NaN,NaN,NaN,NaN,NaN,NaN,,NaN,NaN,NaN,NaN,NaN,NaN,54,1,2020-11-11_08h58.12.776,Pirates_expt3,2020.1.2,Linux x86_64,60,NaN,NaN,NaN,NaN,NaN,NaN,NaN,,NaN,NaN,NaN,NaN,NaN,NaN,,NaN,NaN,NaN,NaN,NaN,NaN,"",,NaN,NaN,NaN,NaN,NaN,NaN,NaN,NaN,NaN,NaN,NaN,NaN,NaN,,NaN,1,0,1,0,1,NaN,,NaN,,NaN,,NaN
NaN,NaN,NaN,NaN,NaN,"",NaN,NaN,"",NaN,NaN,1,1,36,2,56,82,87,0.05,0.1,0.15,0.1,56,82,87,0.05,0.1,0.15,3,3,0,0,82,82,1167,32,s,1.365065,2,36,1167,32,168,0,,NaN,NaN,NaN,NaN,NaN,NaN,54,1,2020-11-11_08h58.12.776,Pirates_expt3,2020.1.2,Linux x86_64,60,NaN,NaN,NaN,NaN,NaN,NaN,NaN,,NaN,NaN,NaN,NaN,NaN,NaN,,NaN,NaN,NaN,NaN,NaN,NaN,"",,NaN,4,0,4,0,1,3,200,0,200,0,1,199,,NaN,200,0,200,0,1,199,,NaN,,NaN,,NaN
NaN,NaN,NaN,NaN,NaN,"",NaN,NaN,"",NaN,NaN,1,1,35,2,58,84,89,0.05,0.1,0.15,0.1,58,84,89,0.05,0.1,0.15,0,4,0,0,84,82,1167,33,0,0,0,35,1167,33,167,5.283,,NaN,NaN,NaN,NaN,NaN,NaN,54,1,2020-11-11_08h58.12.776,Pirates_expt3,2020.1.2,Linux x86_64,60,NaN,NaN,NaN,NaN,NaN,NaN,NaN,,NaN,NaN,NaN,NaN,NaN,NaN,,NaN,NaN,NaN,NaN,NaN,NaN,"",,NaN,4,0,4,0,1,3,200,0,200,0,1,199,,NaN,200,0,200,0,1,199,s,1.365065,,NaN,,NaN
NaN,NaN,NaN,NaN,NaN,"",NaN,NaN,"",NaN,NaN,NaN,NaN,NaN,NaN,NaN,NaN,NaN,NaN,NaN,NaN,NaN,NaN,NaN,NaN,NaN,NaN,NaN,NaN,NaN,,NaN,NaN,NaN,NaN,NaN,,NaN,NaN,NaN,NaN,NaN,NaN,NaN,,NaN,NaN,NaN,NaN,NaN,NaN,54,1,2020-11-11_08h58.12.776,Pirates_expt3,2020.1.2,Linux x86_64,60,NaN,NaN,NaN,NaN,NaN,NaN,NaN,,NaN,NaN,NaN,NaN,NaN,NaN,,NaN,NaN,NaN,NaN,NaN,NaN,"",,NaN,NaN,NaN,NaN,NaN,NaN,NaN,4,0,4,0,1,NaN,,NaN,NaN,NaN,NaN,NaN,NaN,NaN,,NaN,,NaN,,NaN
NaN,NaN,NaN,NaN,NaN,"",NaN,NaN,"",NaN,NaN,1,1,35,1,58,84,89,0.05,0.1,0.15,0.05,58,84,89,0.05,0.1,0.15,1,1,f,1.4312,0,0,1167,34,N/A,0,0,35,1167,34,166,0,,NaN,NaN,NaN,NaN,NaN,NaN,54,1,2020-11-11_08h58.12.776,Pirates_expt3,2020.1.2,Linux x86_64,60,NaN,NaN,NaN,NaN,NaN,NaN,NaN,,NaN,NaN,NaN,NaN,NaN,NaN,,NaN,NaN,NaN,NaN,NaN,NaN,"",,NaN,4,0,4,0,1,3,200,0,200,0,1,199,,NaN,NaN,NaN,NaN,NaN,NaN,NaN,,NaN,,NaN,,NaN
NaN,NaN,NaN,NaN,NaN,"",NaN,NaN,"",NaN,NaN,1,1,35,1,60,85,90,0.05,0.1,0.15,0.05,60,85,90,0.05,0.1,0.15,0,2,0,0,0,0,1167,34,N/A,0,0,35,1167,34,166,0,,NaN,NaN,NaN,NaN,NaN,NaN,54,1,2020-11-11_08h58.12.776,Pirates_expt3,2020.1.2,Linux x86_64,60,NaN,NaN,NaN,NaN,NaN,NaN,NaN,,NaN,NaN,NaN,NaN,NaN,NaN,,NaN,NaN,NaN,NaN,NaN,NaN,"",,NaN,4,0,4,0,1,3,200,0,200,0,1,199,f,1.4312,NaN,NaN,NaN,NaN,NaN,NaN,,NaN,,NaN,,NaN
NaN,NaN,NaN,NaN,NaN,"",NaN,NaN,"",NaN,NaN,1,1,34,1,60,85,90,0.05,0.1,0.15,0.05,60,85,90,0.05,0.1,0.15,2,3,0,0,60,60,1167,34,space,3.344475,0,34,1167,34,166,0,,NaN,NaN,NaN,NaN,NaN,NaN,54,1,2020-11-11_08h58.12.776,Pirates_expt3,2020.1.2,Linux x86_64,60,NaN,NaN,NaN,NaN,NaN,NaN,NaN,,NaN,NaN,NaN,NaN,NaN,NaN,,NaN,NaN,NaN,NaN,NaN,NaN,"",,NaN,4,0,4,0,1,3,200,0,200,0,1,199,,NaN,200,0,200,0,1,199,,NaN,,NaN,,NaN
NaN,NaN,NaN,NaN,NaN,"",NaN,NaN,"",NaN,NaN,1,1,35,1,60,87,92,0.05,0.1,0.15,0.05,60,87,92,0.05,0.1,0.15,0,4,0,0,60,60,1227,35,0,0,0,35,1227,35,165,0,,NaN,NaN,NaN,NaN,NaN,NaN,54,1,2020-11-11_08h58.12.776,Pirates_expt3,2020.1.2,Linux x86_64,60,NaN,NaN,NaN,NaN,NaN,NaN,NaN,,NaN,NaN,NaN,NaN,NaN,NaN,,NaN,NaN,NaN,NaN,NaN,NaN,"",,NaN,4,0,4,0,1,3,200,0,200,0,1,199,,NaN,200,0,200,0,1,199,space,3.344475,,NaN,,NaN
NaN,NaN,NaN,NaN,NaN,"",NaN,NaN,"",NaN,NaN,NaN,NaN,NaN,NaN,NaN,NaN,NaN,NaN,NaN,NaN,NaN,NaN,NaN,NaN,NaN,NaN,NaN,NaN,NaN,,NaN,NaN,NaN,NaN,NaN,,NaN,NaN,NaN,NaN,NaN,NaN,NaN,,NaN,NaN,NaN,NaN,NaN,NaN,54,1,2020-11-11_08h58.12.776,Pirates_expt3,2020.1.2,Linux x86_64,60,NaN,NaN,NaN,NaN,NaN,NaN,NaN,,NaN,NaN,NaN,NaN,NaN,NaN,,NaN,NaN,NaN,NaN,NaN,NaN,"",,NaN,NaN,NaN,NaN,NaN,NaN,NaN,NaN,NaN,NaN,NaN,NaN,NaN,,NaN,0,0,0,0,1,NaN,,NaN,,NaN,,NaN
NaN,NaN,NaN,NaN,NaN,"",NaN,NaN,"",NaN,NaN,1,1,35,1,57,87,92,0.05,0.1,0.15,0.05,57,87,92,0.05,0.1,0.15,3,3,0,0,57,57,1227,35,s,0.68807,1,35,1227,35,165,0,,NaN,NaN,NaN,NaN,NaN,NaN,54,1,2020-11-11_08h58.12.776,Pirates_expt3,2020.1.2,Linux x86_64,60,NaN,NaN,NaN,NaN,NaN,NaN,NaN,,NaN,NaN,NaN,NaN,NaN,NaN,,NaN,NaN,NaN,NaN,NaN,NaN,"",,NaN,4,0,4,0,1,3,200,0,200,0,1,199,,NaN,200,0,200,0,1,199,,NaN,,NaN,,NaN
NaN,NaN,NaN,NaN,NaN,"",NaN,NaN,"",NaN,NaN,1,1,34,1,59,88,93,0.05,0.1,0.15,0.05,59,88,93,0.05,0.1,0.15,0,4,0,0,59,57,1227,36,0,0,0,34,1227,36,164,5.637,,NaN,NaN,NaN,NaN,NaN,NaN,54,1,2020-11-11_08h58.12.776,Pirates_expt3,2020.1.2,Linux x86_64,60,NaN,NaN,NaN,NaN,NaN,NaN,NaN,,NaN,NaN,NaN,NaN,NaN,NaN,,NaN,NaN,NaN,NaN,NaN,NaN,"",,NaN,4,0,4,0,1,3,200,0,200,0,1,199,,NaN,200,0,200,0,1,199,s,0.68807,,NaN,,NaN
NaN,NaN,NaN,NaN,NaN,"",NaN,NaN,"",NaN,NaN,NaN,NaN,NaN,NaN,NaN,NaN,NaN,NaN,NaN,NaN,NaN,NaN,NaN,NaN,NaN,NaN,NaN,NaN,NaN,,NaN,NaN,NaN,NaN,NaN,,NaN,NaN,NaN,NaN,NaN,NaN,NaN,,NaN,NaN,NaN,NaN,NaN,NaN,54,1,2020-11-11_08h58.12.776,Pirates_expt3,2020.1.2,Linux x86_64,60,NaN,NaN,NaN,NaN,NaN,NaN,NaN,,NaN,NaN,NaN,NaN,NaN,NaN,,NaN,NaN,NaN,NaN,NaN,NaN,"",,NaN,NaN,NaN,NaN,NaN,NaN,NaN,5,0,5,0,1,NaN,,NaN,NaN,NaN,NaN,NaN,NaN,NaN,,NaN,,NaN,,NaN
NaN,NaN,NaN,NaN,NaN,"",NaN,NaN,"",NaN,NaN,1,1,34,3,59,88,93,0.05,0.1,0.15,0.15,59,88,93,0.05,0.1,0.15,1,1,k,1.11228,0,0,1227,37,N/A,0,0,34,1227,37,163,0,,NaN,NaN,NaN,NaN,NaN,NaN,54,1,2020-11-11_08h58.12.776,Pirates_expt3,2020.1.2,Linux x86_64,60,NaN,NaN,NaN,NaN,NaN,NaN,NaN,,NaN,NaN,NaN,NaN,NaN,NaN,,NaN,NaN,NaN,NaN,NaN,NaN,"",,NaN,4,0,4,0,1,3,200,0,200,0,1,199,,NaN,NaN,NaN,NaN,NaN,NaN,NaN,,NaN,,NaN,,NaN
NaN,NaN,NaN,NaN,NaN,"",NaN,NaN,"",NaN,NaN,1,1,34,3,61,89,94,0.05,0.1,0.15,0.15,61,89,94,0.05,0.1,0.15,0,2,0,0,0,0,1227,37,N/A,0,0,34,1227,37,163,0,,NaN,NaN,NaN,NaN,NaN,NaN,54,1,2020-11-11_08h58.12.776,Pirates_expt3,2020.1.2,Linux x86_64,60,NaN,NaN,NaN,NaN,NaN,NaN,NaN,,NaN,NaN,NaN,NaN,NaN,NaN,,NaN,NaN,NaN,NaN,NaN,NaN,"",,NaN,4,0,4,0,1,3,200,0,200,0,1,199,k,1.11228,NaN,NaN,NaN,NaN,NaN,NaN,,NaN,,NaN,,NaN
NaN,NaN,NaN,NaN,NaN,"",NaN,NaN,"",NaN,NaN,1,1,33,3,61,89,94,0.05,0.1,0.15,0.15,61,89,94,0.05,0.1,0.15,2,3,0,0,94,94,1227,37,space,0.51844,0,33,1227,37,163,0,,NaN,NaN,NaN,NaN,NaN,NaN,54,1,2020-11-11_08h58.12.776,Pirates_expt3,2020.1.2,Linux x86_64,60,NaN,NaN,NaN,NaN,NaN,NaN,NaN,,NaN,NaN,NaN,NaN,NaN,NaN,,NaN,NaN,NaN,NaN,NaN,NaN,"",,NaN,4,0,4,0,1,3,200,0,200,0,1,199,,NaN,200,0,200,0,1,199,,NaN,,NaN,,NaN
NaN,NaN,NaN,NaN,NaN,"",NaN,NaN,"",NaN,NaN,1,1,34,3,63,90,94,0.05,0.1,0.15,0.15,63,90,94,0.05,0.1,0.15,0,4,0,0,94,94,1321,38,0,0,0,34,1321,38,162,0,,NaN,NaN,NaN,NaN,NaN,NaN,54,1,2020-11-11_08h58.12.776,Pirates_expt3,2020.1.2,Linux x86_64,60,NaN,NaN,NaN,NaN,NaN,NaN,NaN,,NaN,NaN,NaN,NaN,NaN,NaN,,NaN,NaN,NaN,NaN,NaN,NaN,"",,NaN,4,0,4,0,1,3,200,0,200,0,1,199,,NaN,200,0,200,0,1,199,space,0.51844,,NaN,,NaN
NaN,NaN,NaN,NaN,NaN,"",NaN,NaN,"",NaN,NaN,NaN,NaN,NaN,NaN,NaN,NaN,NaN,NaN,NaN,NaN,NaN,NaN,NaN,NaN,NaN,NaN,NaN,NaN,NaN,,NaN,NaN,NaN,NaN,NaN,,NaN,NaN,NaN,NaN,NaN,NaN,NaN,,NaN,NaN,NaN,NaN,NaN,NaN,54,1,2020-11-11_08h58.12.776,Pirates_expt3,2020.1.2,Linux x86_64,60,NaN,NaN,NaN,NaN,NaN,NaN,NaN,,NaN,NaN,NaN,NaN,NaN,NaN,,NaN,NaN,NaN,NaN,NaN,NaN,"",,NaN,NaN,NaN,NaN,NaN,NaN,NaN,NaN,NaN,NaN,NaN,NaN,NaN,,NaN,0,0,0,0,1,NaN,,NaN,,NaN,,NaN
NaN,NaN,NaN,NaN,NaN,"",NaN,NaN,"",NaN,NaN,1,1,34,3,63,90,89,0.05,0.1,0.15,0.15,63,90,89,0.05,0.1,0.15,2,3,0,0,89,89,1321,38,space,0.107845,0,34,1321,38,162,0,,NaN,NaN,NaN,NaN,NaN,NaN,54,1,2020-11-11_08h58.12.776,Pirates_expt3,2020.1.2,Linux x86_64,60,NaN,NaN,NaN,NaN,NaN,NaN,NaN,,NaN,NaN,NaN,NaN,NaN,NaN,,NaN,NaN,NaN,NaN,NaN,NaN,"",,NaN,4,0,4,0,1,3,200,0,200,0,1,199,,NaN,200,0,200,0,1,199,,NaN,,NaN,,NaN
NaN,NaN,NaN,NaN,NaN,"",NaN,NaN,"",NaN,NaN,1,1,36,3,65,91,89,0.05,0.1,0.15,0.15,65,91,89,0.05,0.1,0.15,0,4,0,0,89,89,1411,39,0,0,0,36,1411,39,161,0,,NaN,NaN,NaN,NaN,NaN,NaN,54,1,2020-11-11_08h58.12.776,Pirates_expt3,2020.1.2,Linux x86_64,60,NaN,NaN,NaN,NaN,NaN,NaN,NaN,,NaN,NaN,NaN,NaN,NaN,NaN,,NaN,NaN,NaN,NaN,NaN,NaN,"",,NaN,4,0,4,0,1,3,200,0,200,0,1,199,,NaN,200,0,200,0,1,199,space,0.107845,,NaN,,NaN
NaN,NaN,NaN,NaN,NaN,"",NaN,NaN,"",NaN,NaN,NaN,NaN,NaN,NaN,NaN,NaN,NaN,NaN,NaN,NaN,NaN,NaN,NaN,NaN,NaN,NaN,NaN,NaN,NaN,,NaN,NaN,NaN,NaN,NaN,,NaN,NaN,NaN,NaN,NaN,NaN,NaN,,NaN,NaN,NaN,NaN,NaN,NaN,54,1,2020-11-11_08h58.12.776,Pirates_expt3,2020.1.2,Linux x86_64,60,NaN,NaN,NaN,NaN,NaN,NaN,NaN,,NaN,NaN,NaN,NaN,NaN,NaN,,NaN,NaN,NaN,NaN,NaN,NaN,"",,NaN,NaN,NaN,NaN,NaN,NaN,NaN,NaN,NaN,NaN,NaN,NaN,NaN,,NaN,1,0,1,0,1,NaN,,NaN,,NaN,,NaN
NaN,NaN,NaN,NaN,NaN,"",NaN,NaN,"",NaN,NaN,1,1,36,3,65,91,80,0.05,0.1,0.15,0.15,65,91,80,0.05,0.1,0.15,3,3,0,0,80,80,1411,39,s,2.04184,2,36,1411,39,161,0,,NaN,NaN,NaN,NaN,NaN,NaN,54,1,2020-11-11_08h58.12.776,Pirates_expt3,2020.1.2,Linux x86_64,60,NaN,NaN,NaN,NaN,NaN,NaN,NaN,,NaN,NaN,NaN,NaN,NaN,NaN,,NaN,NaN,NaN,NaN,NaN,NaN,"",,NaN,4,0,4,0,1,3,200,0,200,0,1,199,,NaN,200,0,200,0,1,199,,NaN,,NaN,,NaN
NaN,NaN,NaN,NaN,NaN,"",NaN,NaN,"",NaN,NaN,1,1,35,3,66,92,83,0.05,0.1,0.15,0.15,66,92,83,0.05,0.1,0.15,0,4,0,0,83,80,1411,40,0,0,0,35,1411,40,160,5.835,,NaN,NaN,NaN,NaN,NaN,NaN,54,1,2020-11-11_08h58.12.776,Pirates_expt3,2020.1.2,Linux x86_64,60,NaN,NaN,NaN,NaN,NaN,NaN,NaN,,NaN,NaN,NaN,NaN,NaN,NaN,,NaN,NaN,NaN,NaN,NaN,NaN,"",,NaN,4,0,4,0,1,3,200,0,200,0,1,199,,NaN,200,0,200,0,1,199,s,2.04184,,NaN,,NaN
NaN,NaN,NaN,NaN,NaN,"",NaN,NaN,"",NaN,NaN,NaN,NaN,NaN,NaN,NaN,NaN,NaN,NaN,NaN,NaN,NaN,NaN,NaN,NaN,NaN,NaN,NaN,NaN,NaN,,NaN,NaN,NaN,NaN,NaN,,NaN,NaN,NaN,NaN,NaN,NaN,NaN,,NaN,NaN,NaN,NaN,NaN,NaN,54,1,2020-11-11_08h58.12.776,Pirates_expt3,2020.1.2,Linux x86_64,60,NaN,NaN,NaN,NaN,NaN,NaN,NaN,,NaN,NaN,NaN,NaN,NaN,NaN,,NaN,NaN,NaN,NaN,NaN,NaN,"",,NaN,NaN,NaN,NaN,NaN,NaN,NaN,6,0,6,0,1,NaN,,NaN,NaN,NaN,NaN,NaN,NaN,NaN,,NaN,,NaN,,NaN
NaN,NaN,NaN,NaN,NaN,"",NaN,NaN,"",NaN,NaN,1,1,35,1,66,92,83,0.05,0.1,0.15,0.05,66,92,83,0.05,0.1,0.15,1,1,f,1.30497,0,0,1411,41,N/A,0,0,35,1411,41,159,0,,NaN,NaN,NaN,NaN,NaN,NaN,54,1,2020-11-11_08h58.12.776,Pirates_expt3,2020.1.2,Linux x86_64,60,NaN,NaN,NaN,NaN,NaN,NaN,NaN,,NaN,NaN,NaN,NaN,NaN,NaN,,NaN,NaN,NaN,NaN,NaN,NaN,"",,NaN,4,0,4,0,1,3,200,0,200,0,1,199,,NaN,NaN,NaN,NaN,NaN,NaN,NaN,,NaN,,NaN,,NaN
NaN,NaN,NaN,NaN,NaN,"",NaN,NaN,"",NaN,NaN,1,1,35,1,68,93,86,0.05,0.1,0.15,0.05,68,93,86,0.05,0.1,0.15,0,2,0,0,0,0,1411,41,N/A,0,0,35,1411,41,159,0,,NaN,NaN,NaN,NaN,NaN,NaN,54,1,2020-11-11_08h58.12.776,Pirates_expt3,2020.1.2,Linux x86_64,60,NaN,NaN,NaN,NaN,NaN,NaN,NaN,,NaN,NaN,NaN,NaN,NaN,NaN,,NaN,NaN,NaN,NaN,NaN,NaN,"",,NaN,4,0,4,0,1,3,200,0,200,0,1,199,f,1.30497,NaN,NaN,NaN,NaN,NaN,NaN,,NaN,,NaN,,NaN
NaN,NaN,NaN,NaN,NaN,"",NaN,NaN,"",NaN,NaN,1,1,34,1,68,93,86,0.05,0.1,0.15,0.05,68,93,86,0.05,0.1,0.15,2,3,0,0,68,68,1411,41,space,0.774175,0,34,1411,41,159,0,,NaN,NaN,NaN,NaN,NaN,NaN,54,1,2020-11-11_08h58.12.776,Pirates_expt3,2020.1.2,Linux x86_64,60,NaN,NaN,NaN,NaN,NaN,NaN,NaN,,NaN,NaN,NaN,NaN,NaN,NaN,,NaN,NaN,NaN,NaN,NaN,NaN,"",,NaN,4,0,4,0,1,3,200,0,200,0,1,199,,NaN,200,0,200,0,1,199,,NaN,,NaN,,NaN
NaN,NaN,NaN,NaN,NaN,"",NaN,NaN,"",NaN,NaN,1,1,35,1,68,93,88,0.05,0.1,0.15,0.05,68,93,88,0.05,0.1,0.15,0,4,0,0,68,68,1479,42,0,0,0,35,1479,42,158,0,,NaN,NaN,NaN,NaN,NaN,NaN,54,1,2020-11-11_08h58.12.776,Pirates_expt3,2020.1.2,Linux x86_64,60,NaN,NaN,NaN,NaN,NaN,NaN,NaN,,NaN,NaN,NaN,NaN,NaN,NaN,,NaN,NaN,NaN,NaN,NaN,NaN,"",,NaN,4,0,4,0,1,3,200,0,200,0,1,199,,NaN,200,0,200,0,1,199,space,0.774175,,NaN,,NaN
NaN,NaN,NaN,NaN,NaN,"",NaN,NaN,"",NaN,NaN,NaN,NaN,NaN,NaN,NaN,NaN,NaN,NaN,NaN,NaN,NaN,NaN,NaN,NaN,NaN,NaN,NaN,NaN,NaN,,NaN,NaN,NaN,NaN,NaN,,NaN,NaN,NaN,NaN,NaN,NaN,NaN,,NaN,NaN,NaN,NaN,NaN,NaN,54,1,2020-11-11_08h58.12.776,Pirates_expt3,2020.1.2,Linux x86_64,60,NaN,NaN,NaN,NaN,NaN,NaN,NaN,,NaN,NaN,NaN,NaN,NaN,NaN,,NaN,NaN,NaN,NaN,NaN,NaN,"",,NaN,NaN,NaN,NaN,NaN,NaN,NaN,NaN,NaN,NaN,NaN,NaN,NaN,,NaN,0,0,0,0,1,NaN,,NaN,,NaN,,NaN
NaN,NaN,NaN,NaN,NaN,"",NaN,NaN,"",NaN,NaN,1,1,35,1,65,93,88,0.05,0.1,0.15,0.05,65,93,88,0.05,0.1,0.15,2,3,0,0,65,65,1479,42,space,0.16322,0,35,1479,42,158,0,,NaN,NaN,NaN,NaN,NaN,NaN,54,1,2020-11-11_08h58.12.776,Pirates_expt3,2020.1.2,Linux x86_64,60,NaN,NaN,NaN,NaN,NaN,NaN,NaN,,NaN,NaN,NaN,NaN,NaN,NaN,,NaN,NaN,NaN,NaN,NaN,NaN,"",,NaN,4,0,4,0,1,3,200,0,200,0,1,199,,NaN,200,0,200,0,1,199,,NaN,,NaN,,NaN
NaN,NaN,NaN,NaN,NaN,"",NaN,NaN,"",NaN,NaN,1,1,35,1,65,94,89,0.05,0.1,0.15,0.05,65,94,89,0.05,0.1,0.15,0,4,0,0,65,65,1545,43,0,0,0,35,1545,43,157,0,,NaN,NaN,NaN,NaN,NaN,NaN,54,1,2020-11-11_08h58.12.776,Pirates_expt3,2020.1.2,Linux x86_64,60,NaN,NaN,NaN,NaN,NaN,NaN,NaN,,NaN,NaN,NaN,NaN,NaN,NaN,,NaN,NaN,NaN,NaN,NaN,NaN,"",,NaN,4,0,4,0,1,3,200,0,200,0,1,199,,NaN,200,0,200,0,1,199,space,0.16322,,NaN,,NaN
NaN,NaN,NaN,NaN,NaN,"",NaN,NaN,"",NaN,NaN,NaN,NaN,NaN,NaN,NaN,NaN,NaN,NaN,NaN,NaN,NaN,NaN,NaN,NaN,NaN,NaN,NaN,NaN,NaN,,NaN,NaN,NaN,NaN,NaN,,NaN,NaN,NaN,NaN,NaN,NaN,NaN,,NaN,NaN,NaN,NaN,NaN,NaN,54,1,2020-11-11_08h58.12.776,Pirates_expt3,2020.1.2,Linux x86_64,60,NaN,NaN,NaN,NaN,NaN,NaN,NaN,,NaN,NaN,NaN,NaN,NaN,NaN,,NaN,NaN,NaN,NaN,NaN,NaN,"",,NaN,NaN,NaN,NaN,NaN,NaN,NaN,NaN,NaN,NaN,NaN,NaN,NaN,,NaN,1,0,1,0,1,NaN,,NaN,,NaN,,NaN
NaN,NaN,NaN,NaN,NaN,"",NaN,NaN,"",NaN,NaN,1,1,35,1,58,94,89,0.05,0.1,0.15,0.05,58,94,89,0.05,0.1,0.15,3,3,0,0,58,58,1545,43,s,1.498105,2,35,1545,43,157,0,,NaN,NaN,NaN,NaN,NaN,NaN,54,1,2020-11-11_08h58.12.776,Pirates_expt3,2020.1.2,Linux x86_64,60,NaN,NaN,NaN,NaN,NaN,NaN,NaN,,NaN,NaN,NaN,NaN,NaN,NaN,,NaN,NaN,NaN,NaN,NaN,NaN,"",,NaN,4,0,4,0,1,3,200,0,200,0,1,199,,NaN,200,0,200,0,1,199,,NaN,,NaN,,NaN
NaN,NaN,NaN,NaN,NaN,"",NaN,NaN,"",NaN,NaN,1,1,35,1,60,95,91,0.05,0.1,0.15,0.05,60,95,91,0.05,0.1,0.15,0,4,0,0,60,58,1545,44,0,0,0,35,1545,44,156,5.606,,NaN,NaN,NaN,NaN,NaN,NaN,54,1,2020-11-11_08h58.12.776,Pirates_expt3,2020.1.2,Linux x86_64,60,NaN,NaN,NaN,NaN,NaN,NaN,NaN,,NaN,NaN,NaN,NaN,NaN,NaN,,NaN,NaN,NaN,NaN,NaN,NaN,"",,NaN,4,0,4,0,1,3,200,0,200,0,1,199,,NaN,200,0,200,0,1,199,s,1.498105,,NaN,,NaN
NaN,NaN,NaN,NaN,NaN,"",NaN,NaN,"",NaN,NaN,NaN,NaN,NaN,NaN,NaN,NaN,NaN,NaN,NaN,NaN,NaN,NaN,NaN,NaN,NaN,NaN,NaN,NaN,NaN,,NaN,NaN,NaN,NaN,NaN,,NaN,NaN,NaN,NaN,NaN,NaN,NaN,,NaN,NaN,NaN,NaN,NaN,NaN,54,1,2020-11-11_08h58.12.776,Pirates_expt3,2020.1.2,Linux x86_64,60,NaN,NaN,NaN,NaN,NaN,NaN,NaN,,NaN,NaN,NaN,NaN,NaN,NaN,,NaN,NaN,NaN,NaN,NaN,NaN,"",,NaN,NaN,NaN,NaN,NaN,NaN,NaN,7,0,7,0,1,NaN,,NaN,NaN,NaN,NaN,NaN,NaN,NaN,,NaN,,NaN,,NaN
NaN,NaN,NaN,NaN,NaN,"",NaN,NaN,"",NaN,NaN,1,1,35,3,60,95,91,0.05,0.1,0.15,0.15,60,95,91,0.05,0.1,0.15,1,1,k,1.06979,0,0,1545,45,N/A,0,0,35,1545,45,155,0,,NaN,NaN,NaN,NaN,NaN,NaN,54,1,2020-11-11_08h58.12.776,Pirates_expt3,2020.1.2,Linux x86_64,60,NaN,NaN,NaN,NaN,NaN,NaN,NaN,,NaN,NaN,NaN,NaN,NaN,NaN,,NaN,NaN,NaN,NaN,NaN,NaN,"",,NaN,4,0,4,0,1,3,200,0,200,0,1,199,,NaN,NaN,NaN,NaN,NaN,NaN,NaN,,NaN,,NaN,,NaN
NaN,NaN,NaN,NaN,NaN,"",NaN,NaN,"",NaN,NaN,1,1,35,3,62,95,92,0.05,0.1,0.15,0.15,62,95,92,0.05,0.1,0.15,0,2,0,0,0,0,1545,45,N/A,0,0,35,1545,45,155,0,,NaN,NaN,NaN,NaN,NaN,NaN,54,1,2020-11-11_08h58.12.776,Pirates_expt3,2020.1.2,Linux x86_64,60,NaN,NaN,NaN,NaN,NaN,NaN,NaN,,NaN,NaN,NaN,NaN,NaN,NaN,,NaN,NaN,NaN,NaN,NaN,NaN,"",,NaN,4,0,4,0,1,3,200,0,200,0,1,199,k,1.06979,NaN,NaN,NaN,NaN,NaN,NaN,,NaN,,NaN,,NaN
NaN,NaN,NaN,NaN,NaN,"",NaN,NaN,"",NaN,NaN,1,1,34,3,62,95,92,0.05,0.1,0.15,0.15,62,95,92,0.05,0.1,0.15,2,3,0,0,92,92,1545,45,space,1.02408,0,34,1545,45,155,0,,NaN,NaN,NaN,NaN,NaN,NaN,54,1,2020-11-11_08h58.12.776,Pirates_expt3,2020.1.2,Linux x86_64,60,NaN,NaN,NaN,NaN,NaN,NaN,NaN,,NaN,NaN,NaN,NaN,NaN,NaN,,NaN,NaN,NaN,NaN,NaN,NaN,"",,NaN,4,0,4,0,1,3,200,0,200,0,1,199,,NaN,200,0,200,0,1,199,,NaN,,NaN,,NaN
NaN,NaN,NaN,NaN,NaN,"",NaN,NaN,"",NaN,NaN,1,1,35,3,64,95,92,0.05,0.1,0.15,0.15,64,95,92,0.05,0.1,0.15,0,4,0,0,92,92,1637,46,0,0,0,35,1637,46,154,0,,NaN,NaN,NaN,NaN,NaN,NaN,54,1,2020-11-11_08h58.12.776,Pirates_expt3,2020.1.2,Linux x86_64,60,NaN,NaN,NaN,NaN,NaN,NaN,NaN,,NaN,NaN,NaN,NaN,NaN,NaN,,NaN,NaN,NaN,NaN,NaN,NaN,"",,NaN,4,0,4,0,1,3,200,0,200,0,1,199,,NaN,200,0,200,0,1,199,space,1.02408,,NaN,,NaN
NaN,NaN,NaN,NaN,NaN,"",NaN,NaN,"",NaN,NaN,NaN,NaN,NaN,NaN,NaN,NaN,NaN,NaN,NaN,NaN,NaN,NaN,NaN,NaN,NaN,NaN,NaN,NaN,NaN,,NaN,NaN,NaN,NaN,NaN,,NaN,NaN,NaN,NaN,NaN,NaN,NaN,,NaN,NaN,NaN,NaN,NaN,NaN,54,1,2020-11-11_08h58.12.776,Pirates_expt3,2020.1.2,Linux x86_64,60,NaN,NaN,NaN,NaN,NaN,NaN,NaN,,NaN,NaN,NaN,NaN,NaN,NaN,,NaN,NaN,NaN,NaN,NaN,NaN,"",,NaN,NaN,NaN,NaN,NaN,NaN,NaN,NaN,NaN,NaN,NaN,NaN,NaN,,NaN,0,0,0,0,1,NaN,,NaN,,NaN,,NaN
NaN,NaN,NaN,NaN,NaN,"",NaN,NaN,"",NaN,NaN,1,1,35,3,64,95,88,0.05,0.1,0.15,0.15,64,95,88,0.05,0.1,0.15,3,3,0,0,88,88,1637,46,s,1.005545,1,35,1637,46,154,0,,NaN,NaN,NaN,NaN,NaN,NaN,54,1,2020-11-11_08h58.12.776,Pirates_expt3,2020.1.2,Linux x86_64,60,NaN,NaN,NaN,NaN,NaN,NaN,NaN,,NaN,NaN,NaN,NaN,NaN,NaN,,NaN,NaN,NaN,NaN,NaN,NaN,"",,NaN,4,0,4,0,1,3,200,0,200,0,1,199,,NaN,200,0,200,0,1,199,,NaN,,NaN,,NaN
NaN,NaN,NaN,NaN,NaN,"",NaN,NaN,"",NaN,NaN,1,1,34,3,66,96,89,0.05,0.1,0.15,0.15,66,96,89,0.05,0.1,0.15,0,4,0,0,89,88,1637,47,0,0,0,34,1637,47,153,3.648,,NaN,NaN,NaN,NaN,NaN,NaN,54,1,2020-11-11_08h58.12.776,Pirates_expt3,2020.1.2,Linux x86_64,60,NaN,NaN,NaN,NaN,NaN,NaN,NaN,,NaN,NaN,NaN,NaN,NaN,NaN,,NaN,NaN,NaN,NaN,NaN,NaN,"",,NaN,4,0,4,0,1,3,200,0,200,0,1,199,,NaN,200,0,200,0,1,199,s,1.005545,,NaN,,NaN
NaN,NaN,NaN,NaN,NaN,"",NaN,NaN,"",NaN,NaN,NaN,NaN,NaN,NaN,NaN,NaN,NaN,NaN,NaN,NaN,NaN,NaN,NaN,NaN,NaN,NaN,NaN,NaN,NaN,,NaN,NaN,NaN,NaN,NaN,,NaN,NaN,NaN,NaN,NaN,NaN,NaN,,NaN,NaN,NaN,NaN,NaN,NaN,54,1,2020-11-11_08h58.12.776,Pirates_expt3,2020.1.2,Linux x86_64,60,NaN,NaN,NaN,NaN,NaN,NaN,NaN,,NaN,NaN,NaN,NaN,NaN,NaN,,NaN,NaN,NaN,NaN,NaN,NaN,"",,NaN,NaN,NaN,NaN,NaN,NaN,NaN,8,0,8,0,1,NaN,,NaN,NaN,NaN,NaN,NaN,NaN,NaN,,NaN,,NaN,,NaN
NaN,NaN,NaN,NaN,NaN,"",NaN,NaN,"",NaN,NaN,1,1,34,1,66,96,89,0.05,0.1,0.15,0.05,66,96,89,0.05,0.1,0.15,1,1,f,1.091745,0,0,1637,48,N/A,0,0,34,1637,48,152,0,,NaN,NaN,NaN,NaN,NaN,NaN,54,1,2020-11-11_08h58.12.776,Pirates_expt3,2020.1.2,Linux x86_64,60,NaN,NaN,NaN,NaN,NaN,NaN,NaN,,NaN,NaN,NaN,NaN,NaN,NaN,,NaN,NaN,NaN,NaN,NaN,NaN,"",,NaN,4,0,4,0,1,3,200,0,200,0,1,199,,NaN,NaN,NaN,NaN,NaN,NaN,NaN,,NaN,,NaN,,NaN
NaN,NaN,NaN,NaN,NaN,"",NaN,NaN,"",NaN,NaN,1,1,34,1,68,96,91,0.05,0.1,0.15,0.05,68,96,91,0.05,0.1,0.15,0,2,0,0,0,0,1637,48,N/A,0,0,34,1637,48,152,0,,NaN,NaN,NaN,NaN,NaN,NaN,54,1,2020-11-11_08h58.12.776,Pirates_expt3,2020.1.2,Linux x86_64,60,NaN,NaN,NaN,NaN,NaN,NaN,NaN,,NaN,NaN,NaN,NaN,NaN,NaN,,NaN,NaN,NaN,NaN,NaN,NaN,"",,NaN,4,0,4,0,1,3,200,0,200,0,1,199,f,1.091745,NaN,NaN,NaN,NaN,NaN,NaN,,NaN,,NaN,,NaN
NaN,NaN,NaN,NaN,NaN,"",NaN,NaN,"",NaN,NaN,1,1,34,1,68,96,91,0.05,0.1,0.15,0.05,68,96,91,0.05,0.1,0.15,2,3,0,0,68,68,1637,48,space,0.53061,0,34,1637,48,152,0,,NaN,NaN,NaN,NaN,NaN,NaN,54,1,2020-11-11_08h58.12.776,Pirates_expt3,2020.1.2,Linux x86_64,60,NaN,NaN,NaN,NaN,NaN,NaN,NaN,,NaN,NaN,NaN,NaN,NaN,NaN,,NaN,NaN,NaN,NaN,NaN,NaN,"",,NaN,4,0,4,0,1,3,200,0,200,0,1,199,,NaN,200,0,200,0,1,199,,NaN,,NaN,,NaN
NaN,NaN,NaN,NaN,NaN,"",NaN,NaN,"",NaN,NaN,1,1,34,1,68,97,92,0.05,0.1,0.15,0.05,68,97,92,0.05,0.1,0.15,0,4,0,0,68,68,1706,49,0,0,0,34,1706,49,151,0,,NaN,NaN,NaN,NaN,NaN,NaN,54,1,2020-11-11_08h58.12.776,Pirates_expt3,2020.1.2,Linux x86_64,60,NaN,NaN,NaN,NaN,NaN,NaN,NaN,,NaN,NaN,NaN,NaN,NaN,NaN,,NaN,NaN,NaN,NaN,NaN,NaN,"",,NaN,4,0,4,0,1,3,200,0,200,0,1,199,,NaN,200,0,200,0,1,199,space,0.53061,,NaN,,NaN
NaN,NaN,NaN,NaN,NaN,"",NaN,NaN,"",NaN,NaN,NaN,NaN,NaN,NaN,NaN,NaN,NaN,NaN,NaN,NaN,NaN,NaN,NaN,NaN,NaN,NaN,NaN,NaN,NaN,,NaN,NaN,NaN,NaN,NaN,,NaN,NaN,NaN,NaN,NaN,NaN,NaN,,NaN,NaN,NaN,NaN,NaN,NaN,54,1,2020-11-11_08h58.12.776,Pirates_expt3,2020.1.2,Linux x86_64,60,NaN,NaN,NaN,NaN,NaN,NaN,NaN,,NaN,NaN,NaN,NaN,NaN,NaN,,NaN,NaN,NaN,NaN,NaN,NaN,"",,NaN,NaN,NaN,NaN,NaN,NaN,NaN,NaN,NaN,NaN,NaN,NaN,NaN,,NaN,0,0,0,0,1,NaN,,NaN,,NaN,,NaN
NaN,NaN,NaN,NaN,NaN,"",NaN,NaN,"",NaN,NaN,1,1,34,1,64,97,92,0.05,0.1,0.15,0.05,64,97,92,0.05,0.1,0.15,3,3,0,0,64,64,1706,49,s,0.797005,1,34,1706,49,151,0,,NaN,NaN,NaN,NaN,NaN,NaN,54,1,2020-11-11_08h58.12.776,Pirates_expt3,2020.1.2,Linux x86_64,60,NaN,NaN,NaN,NaN,NaN,NaN,NaN,,NaN,NaN,NaN,NaN,NaN,NaN,,NaN,NaN,NaN,NaN,NaN,NaN,"",,NaN,4,0,4,0,1,3,200,0,200,0,1,199,,NaN,200,0,200,0,1,199,,NaN,,NaN,,NaN
NaN,NaN,NaN,NaN,NaN,"",NaN,NaN,"",NaN,NaN,1,1,34,1,66,97,93,0.05,0.1,0.15,0.05,66,97,93,0.05,0.1,0.15,0,4,0,0,66,64,1706,50,0,0,0,34,1706,50,150,2.941,,NaN,NaN,NaN,NaN,NaN,NaN,54,1,2020-11-11_08h58.12.776,Pirates_expt3,2020.1.2,Linux x86_64,60,NaN,NaN,NaN,NaN,NaN,NaN,NaN,,NaN,NaN,NaN,NaN,NaN,NaN,,NaN,NaN,NaN,NaN,NaN,NaN,"",,NaN,4,0,4,0,1,3,200,0,200,0,1,199,,NaN,200,0,200,0,1,199,s,0.797005,,NaN,,NaN
NaN,NaN,NaN,NaN,NaN,"",NaN,NaN,"",NaN,NaN,NaN,NaN,NaN,NaN,NaN,NaN,NaN,NaN,NaN,NaN,NaN,NaN,NaN,NaN,NaN,NaN,NaN,NaN,NaN,,NaN,NaN,NaN,NaN,NaN,,NaN,NaN,NaN,NaN,NaN,NaN,NaN,,NaN,NaN,NaN,NaN,NaN,NaN,54,1,2020-11-11_08h58.12.776,Pirates_expt3,2020.1.2,Linux x86_64,60,NaN,NaN,NaN,NaN,NaN,NaN,NaN,,NaN,NaN,NaN,NaN,NaN,NaN,,NaN,NaN,NaN,NaN,NaN,NaN,"",,NaN,NaN,NaN,NaN,NaN,NaN,NaN,9,0,9,0,1,NaN,,NaN,NaN,NaN,NaN,NaN,NaN,NaN,,NaN,,NaN,,NaN
NaN,NaN,NaN,NaN,NaN,"",NaN,NaN,"",NaN,NaN,1,1,34,2,66,97,93,0.05,0.1,0.15,0.1,66,97,93,0.05,0.1,0.15,1,1,j,1.540815,0,0,1706,51,N/A,0,0,34,1706,51,149,0,,NaN,NaN,NaN,NaN,NaN,NaN,54,1,2020-11-11_08h58.12.776,Pirates_expt3,2020.1.2,Linux x86_64,60,NaN,NaN,NaN,NaN,NaN,NaN,NaN,,NaN,NaN,NaN,NaN,NaN,NaN,,NaN,NaN,NaN,NaN,NaN,NaN,"",,NaN,4,0,4,0,1,3,200,0,200,0,1,199,,NaN,NaN,NaN,NaN,NaN,NaN,NaN,,NaN,,NaN,,NaN
NaN,NaN,NaN,NaN,NaN,"",NaN,NaN,"",NaN,NaN,1,1,34,2,68,97,94,0.05,0.1,0.15,0.1,68,97,94,0.05,0.1,0.15,0,2,0,0,0,0,1706,51,N/A,0,0,34,1706,51,149,0,,NaN,NaN,NaN,NaN,NaN,NaN,54,1,2020-11-11_08h58.12.776,Pirates_expt3,2020.1.2,Linux x86_64,60,NaN,NaN,NaN,NaN,NaN,NaN,NaN,,NaN,NaN,NaN,NaN,NaN,NaN,,NaN,NaN,NaN,NaN,NaN,NaN,"",,NaN,4,0,4,0,1,3,200,0,200,0,1,199,j,1.540815,NaN,NaN,NaN,NaN,NaN,NaN,,NaN,,NaN,,NaN
NaN,NaN,NaN,NaN,NaN,"",NaN,NaN,"",NaN,NaN,1,1,33,2,68,97,94,0.05,0.1,0.15,0.1,68,97,94,0.05,0.1,0.15,2,3,0,0,97,97,1706,51,space,0.683625,0,33,1706,51,149,0,,NaN,NaN,NaN,NaN,NaN,NaN,54,1,2020-11-11_08h58.12.776,Pirates_expt3,2020.1.2,Linux x86_64,60,NaN,NaN,NaN,NaN,NaN,NaN,NaN,,NaN,NaN,NaN,NaN,NaN,NaN,,NaN,NaN,NaN,NaN,NaN,NaN,"",,NaN,4,0,4,0,1,3,200,0,200,0,1,199,,NaN,200,0,200,0,1,199,,NaN,,NaN,,NaN
NaN,NaN,NaN,NaN,NaN,"",NaN,NaN,"",NaN,NaN,1,1,34,2,69,97,95,0.05,0.1,0.15,0.1,69,97,95,0.05,0.1,0.15,0,4,0,0,97,97,1803,52,0,0,0,34,1803,52,148,0,,NaN,NaN,NaN,NaN,NaN,NaN,54,1,2020-11-11_08h58.12.776,Pirates_expt3,2020.1.2,Linux x86_64,60,NaN,NaN,NaN,NaN,NaN,NaN,NaN,,NaN,NaN,NaN,NaN,NaN,NaN,,NaN,NaN,NaN,NaN,NaN,NaN,"",,NaN,4,0,4,0,1,3,200,0,200,0,1,199,,NaN,200,0,200,0,1,199,space,0.683625,,NaN,,NaN
NaN,NaN,NaN,NaN,NaN,"",NaN,NaN,"",NaN,NaN,NaN,NaN,NaN,NaN,NaN,NaN,NaN,NaN,NaN,NaN,NaN,NaN,NaN,NaN,NaN,NaN,NaN,NaN,NaN,,NaN,NaN,NaN,NaN,NaN,,NaN,NaN,NaN,NaN,NaN,NaN,NaN,,NaN,NaN,NaN,NaN,NaN,NaN,54,1,2020-11-11_08h58.12.776,Pirates_expt3,2020.1.2,Linux x86_64,60,NaN,NaN,NaN,NaN,NaN,NaN,NaN,,NaN,NaN,NaN,NaN,NaN,NaN,,NaN,NaN,NaN,NaN,NaN,NaN,"",,NaN,NaN,NaN,NaN,NaN,NaN,NaN,NaN,NaN,NaN,NaN,NaN,NaN,,NaN,0,0,0,0,1,NaN,,NaN,,NaN,,NaN
NaN,NaN,NaN,NaN,NaN,"",NaN,NaN,"",NaN,NaN,1,1,34,2,69,92,95,0.05,0.1,0.15,0.1,69,92,95,0.05,0.1,0.15,3,3,0,0,92,92,1803,52,s,1.03561,1,34,1803,52,148,0,,NaN,NaN,NaN,NaN,NaN,NaN,54,1,2020-11-11_08h58.12.776,Pirates_expt3,2020.1.2,Linux x86_64,60,NaN,NaN,NaN,NaN,NaN,NaN,NaN,,NaN,NaN,NaN,NaN,NaN,NaN,,NaN,NaN,NaN,NaN,NaN,NaN,"",,NaN,4,0,4,0,1,3,200,0,200,0,1,199,,NaN,200,0,200,0,1,199,,NaN,,NaN,,NaN
NaN,NaN,NaN,NaN,NaN,"",NaN,NaN,"",NaN,NaN,1,1,34,2,71,93,96,0.05,0.1,0.15,0.1,71,93,96,0.05,0.1,0.15,0,4,0,0,93,92,1803,53,0,0,0,34,1803,53,147,3.317,,NaN,NaN,NaN,NaN,NaN,NaN,54,1,2020-11-11_08h58.12.776,Pirates_expt3,2020.1.2,Linux x86_64,60,NaN,NaN,NaN,NaN,NaN,NaN,NaN,,NaN,NaN,NaN,NaN,NaN,NaN,,NaN,NaN,NaN,NaN,NaN,NaN,"",,NaN,4,0,4,0,1,3,200,0,200,0,1,199,,NaN,200,0,200,0,1,199,s,1.03561,,NaN,,NaN
NaN,NaN,NaN,NaN,NaN,"",NaN,NaN,"",NaN,NaN,NaN,NaN,NaN,NaN,NaN,NaN,NaN,NaN,NaN,NaN,NaN,NaN,NaN,NaN,NaN,NaN,NaN,NaN,NaN,,NaN,NaN,NaN,NaN,NaN,,NaN,NaN,NaN,NaN,NaN,NaN,NaN,,NaN,NaN,NaN,NaN,NaN,NaN,54,1,2020-11-11_08h58.12.776,Pirates_expt3,2020.1.2,Linux x86_64,60,NaN,NaN,NaN,NaN,NaN,NaN,NaN,,NaN,NaN,NaN,NaN,NaN,NaN,,NaN,NaN,NaN,NaN,NaN,NaN,"",,NaN,NaN,NaN,NaN,NaN,NaN,NaN,10,0,10,0,1,NaN,,NaN,NaN,NaN,NaN,NaN,NaN,NaN,,NaN,,NaN,,NaN
NaN,NaN,NaN,NaN,NaN,"",NaN,NaN,"",NaN,NaN,1,1,34,3,71,93,96,0.05,0.1,0.15,0.15,71,93,96,0.05,0.1,0.15,1,1,k,1.23579,0,0,1803,54,N/A,0,0,34,1803,54,146,0,,NaN,NaN,NaN,NaN,NaN,NaN,54,1,2020-11-11_08h58.12.776,Pirates_expt3,2020.1.2,Linux x86_64,60,NaN,NaN,NaN,NaN,NaN,NaN,NaN,,NaN,NaN,NaN,NaN,NaN,NaN,,NaN,NaN,NaN,NaN,NaN,NaN,"",,NaN,4,0,4,0,1,3,200,0,200,0,1,199,,NaN,NaN,NaN,NaN,NaN,NaN,NaN,,NaN,,NaN,,NaN
NaN,NaN,NaN,NaN,NaN,"",NaN,NaN,"",NaN,NaN,1,1,34,3,72,94,96,0.05,0.1,0.15,0.15,72,94,96,0.05,0.1,0.15,0,2,0,0,0,0,1803,54,N/A,0,0,34,1803,54,146,0,,NaN,NaN,NaN,NaN,NaN,NaN,54,1,2020-11-11_08h58.12.776,Pirates_expt3,2020.1.2,Linux x86_64,60,NaN,NaN,NaN,NaN,NaN,NaN,NaN,,NaN,NaN,NaN,NaN,NaN,NaN,,NaN,NaN,NaN,NaN,NaN,NaN,"",,NaN,4,0,4,0,1,3,200,0,200,0,1,199,k,1.23579,NaN,NaN,NaN,NaN,NaN,NaN,,NaN,,NaN,,NaN
NaN,NaN,NaN,NaN,NaN,"",NaN,NaN,"",NaN,NaN,1,1,33,3,72,94,96,0.05,0.1,0.15,0.15,72,94,96,0.05,0.1,0.15,2,3,0,0,96,96,1803,54,space,0.466895,0,33,1803,54,146,0,,NaN,NaN,NaN,NaN,NaN,NaN,54,1,2020-11-11_08h58.12.776,Pirates_expt3,2020.1.2,Linux x86_64,60,NaN,NaN,NaN,NaN,NaN,NaN,NaN,,NaN,NaN,NaN,NaN,NaN,NaN,,NaN,NaN,NaN,NaN,NaN,NaN,"",,NaN,4,0,4,0,1,3,200,0,200,0,1,199,,NaN,200,0,200,0,1,199,,NaN,,NaN,,NaN
NaN,NaN,NaN,NaN,NaN,"",NaN,NaN,"",NaN,NaN,1,1,34,3,74,94,96,0.05,0.1,0.15,0.15,74,94,96,0.05,0.1,0.15,0,4,0,0,96,96,1900,55,0,0,0,34,1900,55,145,0,,NaN,NaN,NaN,NaN,NaN,NaN,54,1,2020-11-11_08h58.12.776,Pirates_expt3,2020.1.2,Linux x86_64,60,NaN,NaN,NaN,NaN,NaN,NaN,NaN,,NaN,NaN,NaN,NaN,NaN,NaN,,NaN,NaN,NaN,NaN,NaN,NaN,"",,NaN,4,0,4,0,1,3,200,0,200,0,1,199,,NaN,200,0,200,0,1,199,space,0.466895,,NaN,,NaN
NaN,NaN,NaN,NaN,NaN,"",NaN,NaN,"",NaN,NaN,NaN,NaN,NaN,NaN,NaN,NaN,NaN,NaN,NaN,NaN,NaN,NaN,NaN,NaN,NaN,NaN,NaN,NaN,NaN,,NaN,NaN,NaN,NaN,NaN,,NaN,NaN,NaN,NaN,NaN,NaN,NaN,,NaN,NaN,NaN,NaN,NaN,NaN,54,1,2020-11-11_08h58.12.776,Pirates_expt3,2020.1.2,Linux x86_64,60,NaN,NaN,NaN,NaN,NaN,NaN,NaN,,NaN,NaN,NaN,NaN,NaN,NaN,,NaN,NaN,NaN,NaN,NaN,NaN,"",,NaN,NaN,NaN,NaN,NaN,NaN,NaN,NaN,NaN,NaN,NaN,NaN,NaN,,NaN,0,0,0,0,1,NaN,,NaN,,NaN,,NaN
NaN,NaN,NaN,NaN,NaN,"",NaN,NaN,"",NaN,NaN,1,1,34,3,74,94,91,0.05,0.1,0.15,0.15,74,94,91,0.05,0.1,0.15,3,3,0,0,91,91,1900,55,s,0.84974,1,34,1900,55,145,0,,NaN,NaN,NaN,NaN,NaN,NaN,54,1,2020-11-11_08h58.12.776,Pirates_expt3,2020.1.2,Linux x86_64,60,NaN,NaN,NaN,NaN,NaN,NaN,NaN,,NaN,NaN,NaN,NaN,NaN,NaN,,NaN,NaN,NaN,NaN,NaN,NaN,"",,NaN,4,0,4,0,1,3,200,0,200,0,1,199,,NaN,200,0,200,0,1,199,,NaN,,NaN,,NaN
NaN,NaN,NaN,NaN,NaN,"",NaN,NaN,"",NaN,NaN,1,1,33,3,75,95,93,0.05,0.1,0.15,0.15,75,95,93,0.05,0.1,0.15,0,4,0,0,93,91,1900,56,0,0,0,33,1900,56,144,2.933,,NaN,NaN,NaN,NaN,NaN,NaN,54,1,2020-11-11_08h58.12.776,Pirates_expt3,2020.1.2,Linux x86_64,60,NaN,NaN,NaN,NaN,NaN,NaN,NaN,,NaN,NaN,NaN,NaN,NaN,NaN,,NaN,NaN,NaN,NaN,NaN,NaN,"",,NaN,4,0,4,0,1,3,200,0,200,0,1,199,,NaN,200,0,200,0,1,199,s,0.84974,,NaN,,NaN
NaN,NaN,NaN,NaN,NaN,"",NaN,NaN,"",NaN,NaN,NaN,NaN,NaN,NaN,NaN,NaN,NaN,NaN,NaN,NaN,NaN,NaN,NaN,NaN,NaN,NaN,NaN,NaN,NaN,,NaN,NaN,NaN,NaN,NaN,,NaN,NaN,NaN,NaN,NaN,NaN,NaN,,NaN,NaN,NaN,NaN,NaN,NaN,54,1,2020-11-11_08h58.12.776,Pirates_expt3,2020.1.2,Linux x86_64,60,NaN,NaN,NaN,NaN,NaN,NaN,NaN,,NaN,NaN,NaN,NaN,NaN,NaN,,NaN,NaN,NaN,NaN,NaN,NaN,"",,NaN,NaN,NaN,NaN,NaN,NaN,NaN,11,0,11,0,1,NaN,,NaN,NaN,NaN,NaN,NaN,NaN,NaN,,NaN,,NaN,,NaN
NaN,NaN,NaN,NaN,NaN,"",NaN,NaN,"",NaN,NaN,1,1,33,2,75,95,93,0.05,0.1,0.15,0.1,75,95,93,0.05,0.1,0.15,1,1,j,1.173835,0,0,1900,57,N/A,0,0,33,1900,57,143,0,,NaN,NaN,NaN,NaN,NaN,NaN,54,1,2020-11-11_08h58.12.776,Pirates_expt3,2020.1.2,Linux x86_64,60,NaN,NaN,NaN,NaN,NaN,NaN,NaN,,NaN,NaN,NaN,NaN,NaN,NaN,,NaN,NaN,NaN,NaN,NaN,NaN,"",,NaN,4,0,4,0,1,3,200,0,200,0,1,199,,NaN,NaN,NaN,NaN,NaN,NaN,NaN,,NaN,,NaN,,NaN
NaN,NaN,NaN,NaN,NaN,"",NaN,NaN,"",NaN,NaN,1,1,33,2,76,95,94,0.05,0.1,0.15,0.1,76,95,94,0.05,0.1,0.15,0,2,0,0,0,0,1900,57,N/A,0,0,33,1900,57,143,0,,NaN,NaN,NaN,NaN,NaN,NaN,54,1,2020-11-11_08h58.12.776,Pirates_expt3,2020.1.2,Linux x86_64,60,NaN,NaN,NaN,NaN,NaN,NaN,NaN,,NaN,NaN,NaN,NaN,NaN,NaN,,NaN,NaN,NaN,NaN,NaN,NaN,"",,NaN,4,0,4,0,1,3,200,0,200,0,1,199,j,1.173835,NaN,NaN,NaN,NaN,NaN,NaN,,NaN,,NaN,,NaN
NaN,NaN,NaN,NaN,NaN,"",NaN,NaN,"",NaN,NaN,1,1,33,2,76,95,94,0.05,0.1,0.15,0.1,76,95,94,0.05,0.1,0.15,2,3,0,0,95,95,1900,57,space,0.30861,0,33,1900,57,143,0,,NaN,NaN,NaN,NaN,NaN,NaN,54,1,2020-11-11_08h58.12.776,Pirates_expt3,2020.1.2,Linux x86_64,60,NaN,NaN,NaN,NaN,NaN,NaN,NaN,,NaN,NaN,NaN,NaN,NaN,NaN,,NaN,NaN,NaN,NaN,NaN,NaN,"",,NaN,4,0,4,0,1,3,200,0,200,0,1,199,,NaN,200,0,200,0,1,199,,NaN,,NaN,,NaN
NaN,NaN,NaN,NaN,NaN,"",NaN,NaN,"",NaN,NaN,1,1,34,2,77,95,95,0.05,0.1,0.15,0.1,77,95,95,0.05,0.1,0.15,0,4,0,0,95,95,1996,58,0,0,0,34,1996,58,142,0,,NaN,NaN,NaN,NaN,NaN,NaN,54,1,2020-11-11_08h58.12.776,Pirates_expt3,2020.1.2,Linux x86_64,60,NaN,NaN,NaN,NaN,NaN,NaN,NaN,,NaN,NaN,NaN,NaN,NaN,NaN,,NaN,NaN,NaN,NaN,NaN,NaN,"",,NaN,4,0,4,0,1,3,200,0,200,0,1,199,,NaN,200,0,200,0,1,199,space,0.30861,,NaN,,NaN
NaN,NaN,NaN,NaN,NaN,"",NaN,NaN,"",NaN,NaN,NaN,NaN,NaN,NaN,NaN,NaN,NaN,NaN,NaN,NaN,NaN,NaN,NaN,NaN,NaN,NaN,NaN,NaN,NaN,,NaN,NaN,NaN,NaN,NaN,,NaN,NaN,NaN,NaN,NaN,NaN,NaN,,NaN,NaN,NaN,NaN,NaN,NaN,54,1,2020-11-11_08h58.12.776,Pirates_expt3,2020.1.2,Linux x86_64,60,NaN,NaN,NaN,NaN,NaN,NaN,NaN,,NaN,NaN,NaN,NaN,NaN,NaN,,NaN,NaN,NaN,NaN,NaN,NaN,"",,NaN,NaN,NaN,NaN,NaN,NaN,NaN,NaN,NaN,NaN,NaN,NaN,NaN,,NaN,0,0,0,0,1,NaN,,NaN,,NaN,,NaN
NaN,NaN,NaN,NaN,NaN,"",NaN,NaN,"",NaN,NaN,1,1,34,2,77,90,95,0.05,0.1,0.15,0.1,77,90,95,0.05,0.1,0.15,3,3,0,0,90,90,1996,58,s,0.83275,1,34,1996,58,142,0,,NaN,NaN,NaN,NaN,NaN,NaN,54,1,2020-11-11_08h58.12.776,Pirates_expt3,2020.1.2,Linux x86_64,60,NaN,NaN,NaN,NaN,NaN,NaN,NaN,,NaN,NaN,NaN,NaN,NaN,NaN,,NaN,NaN,NaN,NaN,NaN,NaN,"",,NaN,4,0,4,0,1,3,200,0,200,0,1,199,,NaN,200,0,200,0,1,199,,NaN,,NaN,,NaN
NaN,NaN,NaN,NaN,NaN,"",NaN,NaN,"",NaN,NaN,1,1,33,2,78,91,95,0.05,0.1,0.15,0.1,78,91,95,0.05,0.1,0.15,0,4,0,0,91,90,1996,59,0,0,0,33,1996,59,141,2.75,,NaN,NaN,NaN,NaN,NaN,NaN,54,1,2020-11-11_08h58.12.776,Pirates_expt3,2020.1.2,Linux x86_64,60,NaN,NaN,NaN,NaN,NaN,NaN,NaN,,NaN,NaN,NaN,NaN,NaN,NaN,,NaN,NaN,NaN,NaN,NaN,NaN,"",,NaN,4,0,4,0,1,3,200,0,200,0,1,199,,NaN,200,0,200,0,1,199,s,0.83275,,NaN,,NaN
NaN,NaN,NaN,NaN,NaN,"",NaN,NaN,"",NaN,NaN,NaN,NaN,NaN,NaN,NaN,NaN,NaN,NaN,NaN,NaN,NaN,NaN,NaN,NaN,NaN,NaN,NaN,NaN,NaN,,NaN,NaN,NaN,NaN,NaN,,NaN,NaN,NaN,NaN,NaN,NaN,NaN,,NaN,NaN,NaN,NaN,NaN,NaN,54,1,2020-11-11_08h58.12.776,Pirates_expt3,2020.1.2,Linux x86_64,60,NaN,NaN,NaN,NaN,NaN,NaN,NaN,,NaN,NaN,NaN,NaN,NaN,NaN,,NaN,NaN,NaN,NaN,NaN,NaN,"",,NaN,NaN,NaN,NaN,NaN,NaN,NaN,12,0,12,0,1,NaN,,NaN,NaN,NaN,NaN,NaN,NaN,NaN,,NaN,,NaN,,NaN
NaN,NaN,NaN,NaN,NaN,"",NaN,NaN,"",NaN,NaN,1,1,33,3,78,91,95,0.05,0.1,0.15,0.15,78,91,95,0.05,0.1,0.15,1,1,k,1.10062,0,0,1996,60,N/A,0,0,33,1996,60,140,0,,NaN,NaN,NaN,NaN,NaN,NaN,54,1,2020-11-11_08h58.12.776,Pirates_expt3,2020.1.2,Linux x86_64,60,NaN,NaN,NaN,NaN,NaN,NaN,NaN,,NaN,NaN,NaN,NaN,NaN,NaN,,NaN,NaN,NaN,NaN,NaN,NaN,"",,NaN,4,0,4,0,1,3,200,0,200,0,1,199,,NaN,NaN,NaN,NaN,NaN,NaN,NaN,,NaN,,NaN,,NaN
NaN,NaN,NaN,NaN,NaN,"",NaN,NaN,"",NaN,NaN,1,1,33,3,79,92,96,0.05,0.1,0.15,0.15,79,92,96,0.05,0.1,0.15,0,2,0,0,0,0,1996,60,N/A,0,0,33,1996,60,140,0,,NaN,NaN,NaN,NaN,NaN,NaN,54,1,2020-11-11_08h58.12.776,Pirates_expt3,2020.1.2,Linux x86_64,60,NaN,NaN,NaN,NaN,NaN,NaN,NaN,,NaN,NaN,NaN,NaN,NaN,NaN,,NaN,NaN,NaN,NaN,NaN,NaN,"",,NaN,4,0,4,0,1,3,200,0,200,0,1,199,k,1.10062,NaN,NaN,NaN,NaN,NaN,NaN,,NaN,,NaN,,NaN
NaN,NaN,NaN,NaN,NaN,"",NaN,NaN,"",NaN,NaN,1,1,33,3,79,92,96,0.05,0.1,0.15,0.15,79,92,96,0.05,0.1,0.15,2,3,0,0,96,96,1996,60,space,0.5096,0,33,1996,60,140,0,,NaN,NaN,NaN,NaN,NaN,NaN,54,1,2020-11-11_08h58.12.776,Pirates_expt3,2020.1.2,Linux x86_64,60,NaN,NaN,NaN,NaN,NaN,NaN,NaN,,NaN,NaN,NaN,NaN,NaN,NaN,,NaN,NaN,NaN,NaN,NaN,NaN,"",,NaN,4,0,4,0,1,3,200,0,200,0,1,199,,NaN,200,0,200,0,1,199,,NaN,,NaN,,NaN
NaN,NaN,NaN,NaN,NaN,"",NaN,NaN,"",NaN,NaN,1,1,34,3,80,93,96,0.05,0.1,0.15,0.15,80,93,96,0.05,0.1,0.15,0,4,0,0,96,96,2092,61,0,0,0,34,2092,61,139,0,,NaN,NaN,NaN,NaN,NaN,NaN,54,1,2020-11-11_08h58.12.776,Pirates_expt3,2020.1.2,Linux x86_64,60,NaN,NaN,NaN,NaN,NaN,NaN,NaN,,NaN,NaN,NaN,NaN,NaN,NaN,,NaN,NaN,NaN,NaN,NaN,NaN,"",,NaN,4,0,4,0,1,3,200,0,200,0,1,199,,NaN,200,0,200,0,1,199,space,0.5096,,NaN,,NaN
NaN,NaN,NaN,NaN,NaN,"",NaN,NaN,"",NaN,NaN,NaN,NaN,NaN,NaN,NaN,NaN,NaN,NaN,NaN,NaN,NaN,NaN,NaN,NaN,NaN,NaN,NaN,NaN,NaN,,NaN,NaN,NaN,NaN,NaN,,NaN,NaN,NaN,NaN,NaN,NaN,NaN,,NaN,NaN,NaN,NaN,NaN,NaN,54,1,2020-11-11_08h58.12.776,Pirates_expt3,2020.1.2,Linux x86_64,60,NaN,NaN,NaN,NaN,NaN,NaN,NaN,,NaN,NaN,NaN,NaN,NaN,NaN,,NaN,NaN,NaN,NaN,NaN,NaN,"",,NaN,NaN,NaN,NaN,NaN,NaN,NaN,NaN,NaN,NaN,NaN,NaN,NaN,,NaN,0,0,0,0,1,NaN,,NaN,,NaN,,NaN
NaN,NaN,NaN,NaN,NaN,"",NaN,NaN,"",NaN,NaN,1,1,34,3,80,93,91,0.05,0.1,0.15,0.15,80,93,91,0.05,0.1,0.15,3,3,0,0,91,91,2092,61,s,0.610675,1,34,2092,61,139,0,,NaN,NaN,NaN,NaN,NaN,NaN,54,1,2020-11-11_08h58.12.776,Pirates_expt3,2020.1.2,Linux x86_64,60,NaN,NaN,NaN,NaN,NaN,NaN,NaN,,NaN,NaN,NaN,NaN,NaN,NaN,,NaN,NaN,NaN,NaN,NaN,NaN,"",,NaN,4,0,4,0,1,3,200,0,200,0,1,199,,NaN,200,0,200,0,1,199,,NaN,,NaN,,NaN
NaN,NaN,NaN,NaN,NaN,"",NaN,NaN,"",NaN,NaN,1,1,33,3,81,94,92,0.05,0.1,0.15,0.15,81,94,92,0.05,0.1,0.15,0,4,0,0,92,91,2092,62,0,0,0,33,2092,62,138,2.735,,NaN,NaN,NaN,NaN,NaN,NaN,54,1,2020-11-11_08h58.12.776,Pirates_expt3,2020.1.2,Linux x86_64,60,NaN,NaN,NaN,NaN,NaN,NaN,NaN,,NaN,NaN,NaN,NaN,NaN,NaN,,NaN,NaN,NaN,NaN,NaN,NaN,"",,NaN,4,0,4,0,1,3,200,0,200,0,1,199,,NaN,200,0,200,0,1,199,s,0.610675,,NaN,,NaN
NaN,NaN,NaN,NaN,NaN,"",NaN,NaN,"",NaN,NaN,NaN,NaN,NaN,NaN,NaN,NaN,NaN,NaN,NaN,NaN,NaN,NaN,NaN,NaN,NaN,NaN,NaN,NaN,NaN,,NaN,NaN,NaN,NaN,NaN,,NaN,NaN,NaN,NaN,NaN,NaN,NaN,,NaN,NaN,NaN,NaN,NaN,NaN,54,1,2020-11-11_08h58.12.776,Pirates_expt3,2020.1.2,Linux x86_64,60,NaN,NaN,NaN,NaN,NaN,NaN,NaN,,NaN,NaN,NaN,NaN,NaN,NaN,,NaN,NaN,NaN,NaN,NaN,NaN,"",,NaN,NaN,NaN,NaN,NaN,NaN,NaN,13,0,13,0,1,NaN,,NaN,NaN,NaN,NaN,NaN,NaN,NaN,,NaN,,NaN,,NaN
NaN,NaN,NaN,NaN,NaN,"",NaN,NaN,"",NaN,NaN,1,1,33,1,81,94,92,0.05,0.1,0.15,0.05,81,94,92,0.05,0.1,0.15,1,1,f,1.22161,0,0,2092,63,N/A,0,0,33,2092,63,137,0,,NaN,NaN,NaN,NaN,NaN,NaN,54,1,2020-11-11_08h58.12.776,Pirates_expt3,2020.1.2,Linux x86_64,60,NaN,NaN,NaN,NaN,NaN,NaN,NaN,,NaN,NaN,NaN,NaN,NaN,NaN,,NaN,NaN,NaN,NaN,NaN,NaN,"",,NaN,4,0,4,0,1,3,200,0,200,0,1,199,,NaN,NaN,NaN,NaN,NaN,NaN,NaN,,NaN,,NaN,,NaN
NaN,NaN,NaN,NaN,NaN,"",NaN,NaN,"",NaN,NaN,1,1,33,1,82,94,93,0.05,0.1,0.15,0.05,82,94,93,0.05,0.1,0.15,0,2,0,0,0,0,2092,63,N/A,0,0,33,2092,63,137,0,,NaN,NaN,NaN,NaN,NaN,NaN,54,1,2020-11-11_08h58.12.776,Pirates_expt3,2020.1.2,Linux x86_64,60,NaN,NaN,NaN,NaN,NaN,NaN,NaN,,NaN,NaN,NaN,NaN,NaN,NaN,,NaN,NaN,NaN,NaN,NaN,NaN,"",,NaN,4,0,4,0,1,3,200,0,200,0,1,199,f,1.22161,NaN,NaN,NaN,NaN,NaN,NaN,,NaN,,NaN,,NaN
NaN,NaN,NaN,NaN,NaN,"",NaN,NaN,"",NaN,NaN,1,1,33,1,82,94,93,0.05,0.1,0.15,0.05,82,94,93,0.05,0.1,0.15,2,3,0,0,82,82,2092,63,space,0.83167,0,33,2092,63,137,0,,NaN,NaN,NaN,NaN,NaN,NaN,54,1,2020-11-11_08h58.12.776,Pirates_expt3,2020.1.2,Linux x86_64,60,NaN,NaN,NaN,NaN,NaN,NaN,NaN,,NaN,NaN,NaN,NaN,NaN,NaN,,NaN,NaN,NaN,NaN,NaN,NaN,"",,NaN,4,0,4,0,1,3,200,0,200,0,1,199,,NaN,200,0,200,0,1,199,,NaN,,NaN,,NaN
NaN,NaN,NaN,NaN,NaN,"",NaN,NaN,"",NaN,NaN,1,1,33,1,82,95,94,0.05,0.1,0.15,0.05,82,95,94,0.05,0.1,0.15,0,4,0,0,82,82,2175,64,0,0,0,33,2175,64,136,0,,NaN,NaN,NaN,NaN,NaN,NaN,54,1,2020-11-11_08h58.12.776,Pirates_expt3,2020.1.2,Linux x86_64,60,NaN,NaN,NaN,NaN,NaN,NaN,NaN,,NaN,NaN,NaN,NaN,NaN,NaN,,NaN,NaN,NaN,NaN,NaN,NaN,"",,NaN,4,0,4,0,1,3,200,0,200,0,1,199,,NaN,200,0,200,0,1,199,space,0.83167,,NaN,,NaN
NaN,NaN,NaN,NaN,NaN,"",NaN,NaN,"",NaN,NaN,NaN,NaN,NaN,NaN,NaN,NaN,NaN,NaN,NaN,NaN,NaN,NaN,NaN,NaN,NaN,NaN,NaN,NaN,NaN,,NaN,NaN,NaN,NaN,NaN,,NaN,NaN,NaN,NaN,NaN,NaN,NaN,,NaN,NaN,NaN,NaN,NaN,NaN,54,1,2020-11-11_08h58.12.776,Pirates_expt3,2020.1.2,Linux x86_64,60,NaN,NaN,NaN,NaN,NaN,NaN,NaN,,NaN,NaN,NaN,NaN,NaN,NaN,,NaN,NaN,NaN,NaN,NaN,NaN,"",,NaN,NaN,NaN,NaN,NaN,NaN,NaN,NaN,NaN,NaN,NaN,NaN,NaN,,NaN,0,0,0,0,1,NaN,,NaN,,NaN,,NaN
NaN,NaN,NaN,NaN,NaN,"",NaN,NaN,"",NaN,NaN,1,1,33,1,78,95,94,0.05,0.1,0.15,0.05,78,95,94,0.05,0.1,0.15,3,3,0,0,78,78,2175,64,s,0.73184,1,33,2175,64,136,0,,NaN,NaN,NaN,NaN,NaN,NaN,54,1,2020-11-11_08h58.12.776,Pirates_expt3,2020.1.2,Linux x86_64,60,NaN,NaN,NaN,NaN,NaN,NaN,NaN,,NaN,NaN,NaN,NaN,NaN,NaN,,NaN,NaN,NaN,NaN,NaN,NaN,"",,NaN,4,0,4,0,1,3,200,0,200,0,1,199,,NaN,200,0,200,0,1,199,,NaN,,NaN,,NaN
NaN,NaN,NaN,NaN,NaN,"",NaN,NaN,"",NaN,NaN,1,1,33,1,79,95,95,0.05,0.1,0.15,0.05,79,95,95,0.05,0.1,0.15,0,4,0,0,79,78,2175,65,0,0,0,33,2175,65,135,3.173,,NaN,NaN,NaN,NaN,NaN,NaN,54,1,2020-11-11_08h58.12.776,Pirates_expt3,2020.1.2,Linux x86_64,60,NaN,NaN,NaN,NaN,NaN,NaN,NaN,,NaN,NaN,NaN,NaN,NaN,NaN,,NaN,NaN,NaN,NaN,NaN,NaN,"",,NaN,4,0,4,0,1,3,200,0,200,0,1,199,,NaN,200,0,200,0,1,199,s,0.73184,,NaN,,NaN
NaN,NaN,NaN,NaN,NaN,"",NaN,NaN,"",NaN,NaN,NaN,NaN,NaN,NaN,NaN,NaN,NaN,NaN,NaN,NaN,NaN,NaN,NaN,NaN,NaN,NaN,NaN,NaN,NaN,,NaN,NaN,NaN,NaN,NaN,,NaN,NaN,NaN,NaN,NaN,NaN,NaN,,NaN,NaN,NaN,NaN,NaN,NaN,54,1,2020-11-11_08h58.12.776,Pirates_expt3,2020.1.2,Linux x86_64,60,NaN,NaN,NaN,NaN,NaN,NaN,NaN,,NaN,NaN,NaN,NaN,NaN,NaN,,NaN,NaN,NaN,NaN,NaN,NaN,"",,NaN,NaN,NaN,NaN,NaN,NaN,NaN,14,0,14,0,1,NaN,,NaN,NaN,NaN,NaN,NaN,NaN,NaN,,NaN,,NaN,,NaN
NaN,NaN,NaN,NaN,NaN,"",NaN,NaN,"",NaN,NaN,1,1,33,3,79,95,95,0.05,0.1,0.15,0.15,79,95,95,0.05,0.1,0.15,1,1,k,1.16747,0,0,2175,66,N/A,0,0,33,2175,66,134,0,,NaN,NaN,NaN,NaN,NaN,NaN,54,1,2020-11-11_08h58.12.776,Pirates_expt3,2020.1.2,Linux x86_64,60,NaN,NaN,NaN,NaN,NaN,NaN,NaN,,NaN,NaN,NaN,NaN,NaN,NaN,,NaN,NaN,NaN,NaN,NaN,NaN,"",,NaN,4,0,4,0,1,3,200,0,200,0,1,199,,NaN,NaN,NaN,NaN,NaN,NaN,NaN,,NaN,,NaN,,NaN
NaN,NaN,NaN,NaN,NaN,"",NaN,NaN,"",NaN,NaN,1,1,33,3,80,96,96,0.05,0.1,0.15,0.15,80,96,96,0.05,0.1,0.15,0,2,0,0,0,0,2175,66,N/A,0,0,33,2175,66,134,0,,NaN,NaN,NaN,NaN,NaN,NaN,54,1,2020-11-11_08h58.12.776,Pirates_expt3,2020.1.2,Linux x86_64,60,NaN,NaN,NaN,NaN,NaN,NaN,NaN,,NaN,NaN,NaN,NaN,NaN,NaN,,NaN,NaN,NaN,NaN,NaN,NaN,"",,NaN,4,0,4,0,1,3,200,0,200,0,1,199,k,1.16747,NaN,NaN,NaN,NaN,NaN,NaN,,NaN,,NaN,,NaN
NaN,NaN,NaN,NaN,NaN,"",NaN,NaN,"",NaN,NaN,1,1,32,3,80,96,96,0.05,0.1,0.15,0.15,80,96,96,0.05,0.1,0.15,2,3,0,0,96,96,2175,66,space,0.446575,0,32,2175,66,134,0,,NaN,NaN,NaN,NaN,NaN,NaN,54,1,2020-11-11_08h58.12.776,Pirates_expt3,2020.1.2,Linux x86_64,60,NaN,NaN,NaN,NaN,NaN,NaN,NaN,,NaN,NaN,NaN,NaN,NaN,NaN,,NaN,NaN,NaN,NaN,NaN,NaN,"",,NaN,4,0,4,0,1,3,200,0,200,0,1,199,,NaN,200,0,200,0,1,199,,NaN,,NaN,,NaN
NaN,NaN,NaN,NaN,NaN,"",NaN,NaN,"",NaN,NaN,1,1,33,3,81,96,96,0.05,0.1,0.15,0.15,81,96,96,0.05,0.1,0.15,0,4,0,0,96,96,2271,67,0,0,0,33,2271,67,133,0,,NaN,NaN,NaN,NaN,NaN,NaN,54,1,2020-11-11_08h58.12.776,Pirates_expt3,2020.1.2,Linux x86_64,60,NaN,NaN,NaN,NaN,NaN,NaN,NaN,,NaN,NaN,NaN,NaN,NaN,NaN,,NaN,NaN,NaN,NaN,NaN,NaN,"",,NaN,4,0,4,0,1,3,200,0,200,0,1,199,,NaN,200,0,200,0,1,199,space,0.446575,,NaN,,NaN
NaN,NaN,NaN,NaN,NaN,"",NaN,NaN,"",NaN,NaN,NaN,NaN,NaN,NaN,NaN,NaN,NaN,NaN,NaN,NaN,NaN,NaN,NaN,NaN,NaN,NaN,NaN,NaN,NaN,,NaN,NaN,NaN,NaN,NaN,,NaN,NaN,NaN,NaN,NaN,NaN,NaN,,NaN,NaN,NaN,NaN,NaN,NaN,54,1,2020-11-11_08h58.12.776,Pirates_expt3,2020.1.2,Linux x86_64,60,NaN,NaN,NaN,NaN,NaN,NaN,NaN,,NaN,NaN,NaN,NaN,NaN,NaN,,NaN,NaN,NaN,NaN,NaN,NaN,"",,NaN,NaN,NaN,NaN,NaN,NaN,NaN,NaN,NaN,NaN,NaN,NaN,NaN,,NaN,0,0,0,0,1,NaN,,NaN,,NaN,,NaN
NaN,NaN,NaN,NaN,NaN,"",NaN,NaN,"",NaN,NaN,1,1,33,3,81,96,91,0.05,0.1,0.15,0.15,81,96,91,0.05,0.1,0.15,3,3,0,0,91,91,2271,67,s,0.58759,1,33,2271,67,133,0,,NaN,NaN,NaN,NaN,NaN,NaN,54,1,2020-11-11_08h58.12.776,Pirates_expt3,2020.1.2,Linux x86_64,60,NaN,NaN,NaN,NaN,NaN,NaN,NaN,,NaN,NaN,NaN,NaN,NaN,NaN,,NaN,NaN,NaN,NaN,NaN,NaN,"",,NaN,4,0,4,0,1,3,200,0,200,0,1,199,,NaN,200,0,200,0,1,199,,NaN,,NaN,,NaN
NaN,NaN,NaN,NaN,NaN,"",NaN,NaN,"",NaN,NaN,1,1,33,3,82,96,92,0.05,0.1,0.15,0.15,82,96,92,0.05,0.1,0.15,0,4,0,0,92,91,2271,68,0,0,0,33,2271,68,132,2.632,,NaN,NaN,NaN,NaN,NaN,NaN,54,1,2020-11-11_08h58.12.776,Pirates_expt3,2020.1.2,Linux x86_64,60,NaN,NaN,NaN,NaN,NaN,NaN,NaN,,NaN,NaN,NaN,NaN,NaN,NaN,,NaN,NaN,NaN,NaN,NaN,NaN,"",,NaN,4,0,4,0,1,3,200,0,200,0,1,199,,NaN,200,0,200,0,1,199,s,0.58759,,NaN,,NaN
NaN,NaN,NaN,NaN,NaN,"",NaN,NaN,"",NaN,NaN,NaN,NaN,NaN,NaN,NaN,NaN,NaN,NaN,NaN,NaN,NaN,NaN,NaN,NaN,NaN,NaN,NaN,NaN,NaN,,NaN,NaN,NaN,NaN,NaN,,NaN,NaN,NaN,NaN,NaN,NaN,NaN,,NaN,NaN,NaN,NaN,NaN,NaN,54,1,2020-11-11_08h58.12.776,Pirates_expt3,2020.1.2,Linux x86_64,60,NaN,NaN,NaN,NaN,NaN,NaN,NaN,,NaN,NaN,NaN,NaN,NaN,NaN,,NaN,NaN,NaN,NaN,NaN,NaN,"",,NaN,NaN,NaN,NaN,NaN,NaN,NaN,15,0,15,0,1,NaN,,NaN,NaN,NaN,NaN,NaN,NaN,NaN,,NaN,,NaN,,NaN
NaN,NaN,NaN,NaN,NaN,"",NaN,NaN,"",NaN,NaN,1,1,33,1,82,96,92,0.05,0.1,0.15,0.05,82,96,92,0.05,0.1,0.15,1,1,f,1.26866,0,0,2271,69,N/A,0,0,33,2271,69,131,0,,NaN,NaN,NaN,NaN,NaN,NaN,54,1,2020-11-11_08h58.12.776,Pirates_expt3,2020.1.2,Linux x86_64,60,NaN,NaN,NaN,NaN,NaN,NaN,NaN,,NaN,NaN,NaN,NaN,NaN,NaN,,NaN,NaN,NaN,NaN,NaN,NaN,"",,NaN,4,0,4,0,1,3,200,0,200,0,1,199,,NaN,NaN,NaN,NaN,NaN,NaN,NaN,,NaN,,NaN,,NaN
NaN,NaN,NaN,NaN,NaN,"",NaN,NaN,"",NaN,NaN,1,1,33,1,83,97,93,0.05,0.1,0.15,0.05,83,97,93,0.05,0.1,0.15,0,2,0,0,0,0,2271,69,N/A,0,0,33,2271,69,131,0,,NaN,NaN,NaN,NaN,NaN,NaN,54,1,2020-11-11_08h58.12.776,Pirates_expt3,2020.1.2,Linux x86_64,60,NaN,NaN,NaN,NaN,NaN,NaN,NaN,,NaN,NaN,NaN,NaN,NaN,NaN,,NaN,NaN,NaN,NaN,NaN,NaN,"",,NaN,4,0,4,0,1,3,200,0,200,0,1,199,f,1.26866,NaN,NaN,NaN,NaN,NaN,NaN,,NaN,,NaN,,NaN
NaN,NaN,NaN,NaN,NaN,"",NaN,NaN,"",NaN,NaN,1,1,32,1,83,97,93,0.05,0.1,0.15,0.05,83,97,93,0.05,0.1,0.15,2,3,0,0,83,83,2271,69,space,0.528865,0,32,2271,69,131,0,,NaN,NaN,NaN,NaN,NaN,NaN,54,1,2020-11-11_08h58.12.776,Pirates_expt3,2020.1.2,Linux x86_64,60,NaN,NaN,NaN,NaN,NaN,NaN,NaN,,NaN,NaN,NaN,NaN,NaN,NaN,,NaN,NaN,NaN,NaN,NaN,NaN,"",,NaN,4,0,4,0,1,3,200,0,200,0,1,199,,NaN,200,0,200,0,1,199,,NaN,,NaN,,NaN
NaN,NaN,NaN,NaN,NaN,"",NaN,NaN,"",NaN,NaN,1,1,33,1,83,97,94,0.05,0.1,0.15,0.05,83,97,94,0.05,0.1,0.15,0,4,0,0,83,83,2355,70,0,0,0,33,2355,70,130,0,,NaN,NaN,NaN,NaN,NaN,NaN,54,1,2020-11-11_08h58.12.776,Pirates_expt3,2020.1.2,Linux x86_64,60,NaN,NaN,NaN,NaN,NaN,NaN,NaN,,NaN,NaN,NaN,NaN,NaN,NaN,,NaN,NaN,NaN,NaN,NaN,NaN,"",,NaN,4,0,4,0,1,3,200,0,200,0,1,199,,NaN,200,0,200,0,1,199,space,0.528865,,NaN,,NaN
NaN,NaN,NaN,NaN,NaN,"",NaN,NaN,"",NaN,NaN,NaN,NaN,NaN,NaN,NaN,NaN,NaN,NaN,NaN,NaN,NaN,NaN,NaN,NaN,NaN,NaN,NaN,NaN,NaN,,NaN,NaN,NaN,NaN,NaN,,NaN,NaN,NaN,NaN,NaN,NaN,NaN,,NaN,NaN,NaN,NaN,NaN,NaN,54,1,2020-11-11_08h58.12.776,Pirates_expt3,2020.1.2,Linux x86_64,60,NaN,NaN,NaN,NaN,NaN,NaN,NaN,,NaN,NaN,NaN,NaN,NaN,NaN,,NaN,NaN,NaN,NaN,NaN,NaN,"",,NaN,NaN,NaN,NaN,NaN,NaN,NaN,NaN,NaN,NaN,NaN,NaN,NaN,,NaN,0,0,0,0,1,NaN,,NaN,,NaN,,NaN
NaN,NaN,NaN,NaN,NaN,"",NaN,NaN,"",NaN,NaN,1,1,33,1,79,97,94,0.05,0.1,0.15,0.05,79,97,94,0.05,0.1,0.15,3,3,0,0,79,79,2355,70,s,0.62064,1,33,2355,70,130,0,,NaN,NaN,NaN,NaN,NaN,NaN,54,1,2020-11-11_08h58.12.776,Pirates_expt3,2020.1.2,Linux x86_64,60,NaN,NaN,NaN,NaN,NaN,NaN,NaN,,NaN,NaN,NaN,NaN,NaN,NaN,,NaN,NaN,NaN,NaN,NaN,NaN,"",,NaN,4,0,4,0,1,3,200,0,200,0,1,199,,NaN,200,0,200,0,1,199,,NaN,,NaN,,NaN
NaN,NaN,NaN,NaN,NaN,"",NaN,NaN,"",NaN,NaN,1,1,33,1,80,97,95,0.05,0.1,0.15,0.05,80,97,95,0.05,0.1,0.15,0,4,0,0,80,79,2355,71,0,0,0,33,2355,71,129,2.755,,NaN,NaN,NaN,NaN,NaN,NaN,54,1,2020-11-11_08h58.12.776,Pirates_expt3,2020.1.2,Linux x86_64,60,NaN,NaN,NaN,NaN,NaN,NaN,NaN,,NaN,NaN,NaN,NaN,NaN,NaN,,NaN,NaN,NaN,NaN,NaN,NaN,"",,NaN,4,0,4,0,1,3,200,0,200,0,1,199,,NaN,200,0,200,0,1,199,s,0.62064,,NaN,,NaN
NaN,NaN,NaN,NaN,NaN,"",NaN,NaN,"",NaN,NaN,NaN,NaN,NaN,NaN,NaN,NaN,NaN,NaN,NaN,NaN,NaN,NaN,NaN,NaN,NaN,NaN,NaN,NaN,NaN,,NaN,NaN,NaN,NaN,NaN,,NaN,NaN,NaN,NaN,NaN,NaN,NaN,,NaN,NaN,NaN,NaN,NaN,NaN,54,1,2020-11-11_08h58.12.776,Pirates_expt3,2020.1.2,Linux x86_64,60,NaN,NaN,NaN,NaN,NaN,NaN,NaN,,NaN,NaN,NaN,NaN,NaN,NaN,,NaN,NaN,NaN,NaN,NaN,NaN,"",,NaN,NaN,NaN,NaN,NaN,NaN,NaN,16,0,16,0,1,NaN,,NaN,NaN,NaN,NaN,NaN,NaN,NaN,,NaN,,NaN,,NaN
NaN,NaN,NaN,NaN,NaN,"",NaN,NaN,"",NaN,NaN,1,1,33,3,80,97,95,0.05,0.1,0.15,0.15,80,97,95,0.05,0.1,0.15,1,1,k,0.99798,0,0,2355,72,N/A,0,0,33,2355,72,128,0,,NaN,NaN,NaN,NaN,NaN,NaN,54,1,2020-11-11_08h58.12.776,Pirates_expt3,2020.1.2,Linux x86_64,60,NaN,NaN,NaN,NaN,NaN,NaN,NaN,,NaN,NaN,NaN,NaN,NaN,NaN,,NaN,NaN,NaN,NaN,NaN,NaN,"",,NaN,4,0,4,0,1,3,200,0,200,0,1,199,,NaN,NaN,NaN,NaN,NaN,NaN,NaN,,NaN,,NaN,,NaN
NaN,NaN,NaN,NaN,NaN,"",NaN,NaN,"",NaN,NaN,1,1,33,3,81,97,96,0.05,0.1,0.15,0.15,81,97,96,0.05,0.1,0.15,0,2,0,0,0,0,2355,72,N/A,0,0,33,2355,72,128,0,,NaN,NaN,NaN,NaN,NaN,NaN,54,1,2020-11-11_08h58.12.776,Pirates_expt3,2020.1.2,Linux x86_64,60,NaN,NaN,NaN,NaN,NaN,NaN,NaN,,NaN,NaN,NaN,NaN,NaN,NaN,,NaN,NaN,NaN,NaN,NaN,NaN,"",,NaN,4,0,4,0,1,3,200,0,200,0,1,199,k,0.99798,NaN,NaN,NaN,NaN,NaN,NaN,,NaN,,NaN,,NaN
NaN,NaN,NaN,NaN,NaN,"",NaN,NaN,"",NaN,NaN,1,1,32,3,81,97,96,0.05,0.1,0.15,0.15,81,97,96,0.05,0.1,0.15,2,3,0,0,96,96,2355,72,space,0.444145,0,32,2355,72,128,0,,NaN,NaN,NaN,NaN,NaN,NaN,54,1,2020-11-11_08h58.12.776,Pirates_expt3,2020.1.2,Linux x86_64,60,NaN,NaN,NaN,NaN,NaN,NaN,NaN,,NaN,NaN,NaN,NaN,NaN,NaN,,NaN,NaN,NaN,NaN,NaN,NaN,"",,NaN,4,0,4,0,1,3,200,0,200,0,1,199,,NaN,200,0,200,0,1,199,,NaN,,NaN,,NaN
NaN,NaN,NaN,NaN,NaN,"",NaN,NaN,"",NaN,NaN,1,1,33,3,82,98,96,0.05,0.1,0.15,0.15,82,98,96,0.05,0.1,0.15,0,4,0,0,96,96,2451,73,0,0,0,33,2451,73,127,0,,NaN,NaN,NaN,NaN,NaN,NaN,54,1,2020-11-11_08h58.12.776,Pirates_expt3,2020.1.2,Linux x86_64,60,NaN,NaN,NaN,NaN,NaN,NaN,NaN,,NaN,NaN,NaN,NaN,NaN,NaN,,NaN,NaN,NaN,NaN,NaN,NaN,"",,NaN,4,0,4,0,1,3,200,0,200,0,1,199,,NaN,200,0,200,0,1,199,space,0.444145,,NaN,,NaN
NaN,NaN,NaN,NaN,NaN,"",NaN,NaN,"",NaN,NaN,NaN,NaN,NaN,NaN,NaN,NaN,NaN,NaN,NaN,NaN,NaN,NaN,NaN,NaN,NaN,NaN,NaN,NaN,NaN,,NaN,NaN,NaN,NaN,NaN,,NaN,NaN,NaN,NaN,NaN,NaN,NaN,,NaN,NaN,NaN,NaN,NaN,NaN,54,1,2020-11-11_08h58.12.776,Pirates_expt3,2020.1.2,Linux x86_64,60,NaN,NaN,NaN,NaN,NaN,NaN,NaN,,NaN,NaN,NaN,NaN,NaN,NaN,,NaN,NaN,NaN,NaN,NaN,NaN,"",,NaN,NaN,NaN,NaN,NaN,NaN,NaN,NaN,NaN,NaN,NaN,NaN,NaN,,NaN,0,0,0,0,1,NaN,,NaN,,NaN,,NaN
NaN,NaN,NaN,NaN,NaN,"",NaN,NaN,"",NaN,NaN,1,1,33,3,82,98,91,0.05,0.1,0.15,0.15,82,98,91,0.05,0.1,0.15,3,3,0,0,91,91,2451,73,s,0.513095,1,33,2451,73,127,0,,NaN,NaN,NaN,NaN,NaN,NaN,54,1,2020-11-11_08h58.12.776,Pirates_expt3,2020.1.2,Linux x86_64,60,NaN,NaN,NaN,NaN,NaN,NaN,NaN,,NaN,NaN,NaN,NaN,NaN,NaN,,NaN,NaN,NaN,NaN,NaN,NaN,"",,NaN,4,0,4,0,1,3,200,0,200,0,1,199,,NaN,200,0,200,0,1,199,,NaN,,NaN,,NaN
NaN,NaN,NaN,NaN,NaN,"",NaN,NaN,"",NaN,NaN,1,1,33,3,83,98,92,0.05,0.1,0.15,0.15,83,98,92,0.05,0.1,0.15,0,4,0,0,92,91,2451,74,0,0,0,33,2451,74,126,2.606,,NaN,NaN,NaN,NaN,NaN,NaN,54,1,2020-11-11_08h58.12.776,Pirates_expt3,2020.1.2,Linux x86_64,60,NaN,NaN,NaN,NaN,NaN,NaN,NaN,,NaN,NaN,NaN,NaN,NaN,NaN,,NaN,NaN,NaN,NaN,NaN,NaN,"",,NaN,4,0,4,0,1,3,200,0,200,0,1,199,,NaN,200,0,200,0,1,199,s,0.513095,,NaN,,NaN
NaN,NaN,NaN,NaN,NaN,"",NaN,NaN,"",NaN,NaN,NaN,NaN,NaN,NaN,NaN,NaN,NaN,NaN,NaN,NaN,NaN,NaN,NaN,NaN,NaN,NaN,NaN,NaN,NaN,,NaN,NaN,NaN,NaN,NaN,,NaN,NaN,NaN,NaN,NaN,NaN,NaN,,NaN,NaN,NaN,NaN,NaN,NaN,54,1,2020-11-11_08h58.12.776,Pirates_expt3,2020.1.2,Linux x86_64,60,NaN,NaN,NaN,NaN,NaN,NaN,NaN,,NaN,NaN,NaN,NaN,NaN,NaN,,NaN,NaN,NaN,NaN,NaN,NaN,"",,NaN,NaN,NaN,NaN,NaN,NaN,NaN,17,0,17,0,1,NaN,,NaN,NaN,NaN,NaN,NaN,NaN,NaN,,NaN,,NaN,,NaN
NaN,NaN,NaN,NaN,NaN,"",NaN,NaN,"",NaN,NaN,1,1,33,1,83,98,92,0.05,0.1,0.15,0.05,83,98,92,0.05,0.1,0.15,1,1,f,0.959265,0,0,2451,75,N/A,0,0,33,2451,75,125,0,,NaN,NaN,NaN,NaN,NaN,NaN,54,1,2020-11-11_08h58.12.776,Pirates_expt3,2020.1.2,Linux x86_64,60,NaN,NaN,NaN,NaN,NaN,NaN,NaN,,NaN,NaN,NaN,NaN,NaN,NaN,,NaN,NaN,NaN,NaN,NaN,NaN,"",,NaN,4,0,4,0,1,3,200,0,200,0,1,199,,NaN,NaN,NaN,NaN,NaN,NaN,NaN,,NaN,,NaN,,NaN
NaN,NaN,NaN,NaN,NaN,"",NaN,NaN,"",NaN,NaN,1,1,33,1,83,98,93,0.05,0.1,0.15,0.05,83,98,93,0.05,0.1,0.15,0,2,0,0,0,0,2451,75,N/A,0,0,33,2451,75,125,0,,NaN,NaN,NaN,NaN,NaN,NaN,54,1,2020-11-11_08h58.12.776,Pirates_expt3,2020.1.2,Linux x86_64,60,NaN,NaN,NaN,NaN,NaN,NaN,NaN,,NaN,NaN,NaN,NaN,NaN,NaN,,NaN,NaN,NaN,NaN,NaN,NaN,"",,NaN,4,0,4,0,1,3,200,0,200,0,1,199,f,0.959265,NaN,NaN,NaN,NaN,NaN,NaN,,NaN,,NaN,,NaN
NaN,NaN,NaN,NaN,NaN,"",NaN,NaN,"",NaN,NaN,1,1,32,1,83,98,93,0.05,0.1,0.15,0.05,83,98,93,0.05,0.1,0.15,2,3,0,0,83,83,2451,75,space,0.209895,0,32,2451,75,125,0,,NaN,NaN,NaN,NaN,NaN,NaN,54,1,2020-11-11_08h58.12.776,Pirates_expt3,2020.1.2,Linux x86_64,60,NaN,NaN,NaN,NaN,NaN,NaN,NaN,,NaN,NaN,NaN,NaN,NaN,NaN,,NaN,NaN,NaN,NaN,NaN,NaN,"",,NaN,4,0,4,0,1,3,200,0,200,0,1,199,,NaN,200,0,200,0,1,199,,NaN,,NaN,,NaN
NaN,NaN,NaN,NaN,NaN,"",NaN,NaN,"",NaN,NaN,1,1,33,1,83,98,94,0.05,0.1,0.15,0.05,83,98,94,0.05,0.1,0.15,0,4,0,0,83,83,2535,76,0,0,0,33,2535,76,124,0,,NaN,NaN,NaN,NaN,NaN,NaN,54,1,2020-11-11_08h58.12.776,Pirates_expt3,2020.1.2,Linux x86_64,60,NaN,NaN,NaN,NaN,NaN,NaN,NaN,,NaN,NaN,NaN,NaN,NaN,NaN,,NaN,NaN,NaN,NaN,NaN,NaN,"",,NaN,4,0,4,0,1,3,200,0,200,0,1,199,,NaN,200,0,200,0,1,199,space,0.209895,,NaN,,NaN
NaN,NaN,NaN,NaN,NaN,"",NaN,NaN,"",NaN,NaN,NaN,NaN,NaN,NaN,NaN,NaN,NaN,NaN,NaN,NaN,NaN,NaN,NaN,NaN,NaN,NaN,NaN,NaN,NaN,,NaN,NaN,NaN,NaN,NaN,,NaN,NaN,NaN,NaN,NaN,NaN,NaN,,NaN,NaN,NaN,NaN,NaN,NaN,54,1,2020-11-11_08h58.12.776,Pirates_expt3,2020.1.2,Linux x86_64,60,NaN,NaN,NaN,NaN,NaN,NaN,NaN,,NaN,NaN,NaN,NaN,NaN,NaN,,NaN,NaN,NaN,NaN,NaN,NaN,"",,NaN,NaN,NaN,NaN,NaN,NaN,NaN,NaN,NaN,NaN,NaN,NaN,NaN,,NaN,0,0,0,0,1,NaN,,NaN,,NaN,,NaN
NaN,NaN,NaN,NaN,NaN,"",NaN,NaN,"",NaN,NaN,1,1,33,1,79,98,94,0.05,0.1,0.15,0.05,79,98,94,0.05,0.1,0.15,3,3,0,0,79,79,2535,76,s,0.500925,1,33,2535,76,124,0,,NaN,NaN,NaN,NaN,NaN,NaN,54,1,2020-11-11_08h58.12.776,Pirates_expt3,2020.1.2,Linux x86_64,60,NaN,NaN,NaN,NaN,NaN,NaN,NaN,,NaN,NaN,NaN,NaN,NaN,NaN,,NaN,NaN,NaN,NaN,NaN,NaN,"",,NaN,4,0,4,0,1,3,200,0,200,0,1,199,,NaN,200,0,200,0,1,199,,NaN,,NaN,,NaN
NaN,NaN,NaN,NaN,NaN,"",NaN,NaN,"",NaN,NaN,1,1,32,1,80,98,95,0.05,0.1,0.15,0.05,80,98,95,0.05,0.1,0.15,0,4,0,0,80,79,2535,77,0,0,0,32,2535,77,123,2.319,,NaN,NaN,NaN,NaN,NaN,NaN,54,1,2020-11-11_08h58.12.776,Pirates_expt3,2020.1.2,Linux x86_64,60,NaN,NaN,NaN,NaN,NaN,NaN,NaN,,NaN,NaN,NaN,NaN,NaN,NaN,,NaN,NaN,NaN,NaN,NaN,NaN,"",,NaN,4,0,4,0,1,3,200,0,200,0,1,199,,NaN,200,0,200,0,1,199,s,0.500925,,NaN,,NaN
NaN,NaN,NaN,NaN,NaN,"",NaN,NaN,"",NaN,NaN,NaN,NaN,NaN,NaN,NaN,NaN,NaN,NaN,NaN,NaN,NaN,NaN,NaN,NaN,NaN,NaN,NaN,NaN,NaN,,NaN,NaN,NaN,NaN,NaN,,NaN,NaN,NaN,NaN,NaN,NaN,NaN,,NaN,NaN,NaN,NaN,NaN,NaN,54,1,2020-11-11_08h58.12.776,Pirates_expt3,2020.1.2,Linux x86_64,60,NaN,NaN,NaN,NaN,NaN,NaN,NaN,,NaN,NaN,NaN,NaN,NaN,NaN,,NaN,NaN,NaN,NaN,NaN,NaN,"",,NaN,NaN,NaN,NaN,NaN,NaN,NaN,18,0,18,0,1,NaN,,NaN,NaN,NaN,NaN,NaN,NaN,NaN,,NaN,,NaN,,NaN
NaN,NaN,NaN,NaN,NaN,"",NaN,NaN,"",NaN,NaN,1,1,32,3,80,98,95,0.05,0.1,0.15,0.15,80,98,95,0.05,0.1,0.15,1,1,k,1.051055,0,0,2535,78,N/A,0,0,32,2535,78,122,0,,NaN,NaN,NaN,NaN,NaN,NaN,54,1,2020-11-11_08h58.12.776,Pirates_expt3,2020.1.2,Linux x86_64,60,NaN,NaN,NaN,NaN,NaN,NaN,NaN,,NaN,NaN,NaN,NaN,NaN,NaN,,NaN,NaN,NaN,NaN,NaN,NaN,"",,NaN,4,0,4,0,1,3,200,0,200,0,1,199,,NaN,NaN,NaN,NaN,NaN,NaN,NaN,,NaN,,NaN,,NaN
NaN,NaN,NaN,NaN,NaN,"",NaN,NaN,"",NaN,NaN,1,1,32,3,81,98,96,0.05,0.1,0.15,0.15,81,98,96,0.05,0.1,0.15,0,2,0,0,0,0,2535,78,N/A,0,0,32,2535,78,122,0,,NaN,NaN,NaN,NaN,NaN,NaN,54,1,2020-11-11_08h58.12.776,Pirates_expt3,2020.1.2,Linux x86_64,60,NaN,NaN,NaN,NaN,NaN,NaN,NaN,,NaN,NaN,NaN,NaN,NaN,NaN,,NaN,NaN,NaN,NaN,NaN,NaN,"",,NaN,4,0,4,0,1,3,200,0,200,0,1,199,k,1.051055,NaN,NaN,NaN,NaN,NaN,NaN,,NaN,,NaN,,NaN
NaN,NaN,NaN,NaN,NaN,"",NaN,NaN,"",NaN,NaN,1,1,32,3,81,98,96,0.05,0.1,0.15,0.15,81,98,96,0.05,0.1,0.15,2,3,0,0,96,96,2535,78,space,0.508325,0,32,2535,78,122,0,,NaN,NaN,NaN,NaN,NaN,NaN,54,1,2020-11-11_08h58.12.776,Pirates_expt3,2020.1.2,Linux x86_64,60,NaN,NaN,NaN,NaN,NaN,NaN,NaN,,NaN,NaN,NaN,NaN,NaN,NaN,,NaN,NaN,NaN,NaN,NaN,NaN,"",,NaN,4,0,4,0,1,3,200,0,200,0,1,199,,NaN,200,0,200,0,1,199,,NaN,,NaN,,NaN
NaN,NaN,NaN,NaN,NaN,"",NaN,NaN,"",NaN,NaN,1,1,33,3,82,99,96,0.05,0.1,0.15,0.15,82,99,96,0.05,0.1,0.15,0,4,0,0,96,96,2631,79,0,0,0,33,2631,79,121,0,,NaN,NaN,NaN,NaN,NaN,NaN,54,1,2020-11-11_08h58.12.776,Pirates_expt3,2020.1.2,Linux x86_64,60,NaN,NaN,NaN,NaN,NaN,NaN,NaN,,NaN,NaN,NaN,NaN,NaN,NaN,,NaN,NaN,NaN,NaN,NaN,NaN,"",,NaN,4,0,4,0,1,3,200,0,200,0,1,199,,NaN,200,0,200,0,1,199,space,0.508325,,NaN,,NaN
NaN,NaN,NaN,NaN,NaN,"",NaN,NaN,"",NaN,NaN,NaN,NaN,NaN,NaN,NaN,NaN,NaN,NaN,NaN,NaN,NaN,NaN,NaN,NaN,NaN,NaN,NaN,NaN,NaN,,NaN,NaN,NaN,NaN,NaN,,NaN,NaN,NaN,NaN,NaN,NaN,NaN,,NaN,NaN,NaN,NaN,NaN,NaN,54,1,2020-11-11_08h58.12.776,Pirates_expt3,2020.1.2,Linux x86_64,60,NaN,NaN,NaN,NaN,NaN,NaN,NaN,,NaN,NaN,NaN,NaN,NaN,NaN,,NaN,NaN,NaN,NaN,NaN,NaN,"",,NaN,NaN,NaN,NaN,NaN,NaN,NaN,NaN,NaN,NaN,NaN,NaN,NaN,,NaN,0,0,0,0,1,NaN,,NaN,,NaN,,NaN
NaN,NaN,NaN,NaN,NaN,"",NaN,NaN,"",NaN,NaN,1,1,33,3,82,99,91,0.05,0.1,0.15,0.15,82,99,91,0.05,0.1,0.15,3,3,0,0,91,91,2631,79,s,0.698385,1,33,2631,79,121,0,,NaN,NaN,NaN,NaN,NaN,NaN,54,1,2020-11-11_08h58.12.776,Pirates_expt3,2020.1.2,Linux x86_64,60,NaN,NaN,NaN,NaN,NaN,NaN,NaN,,NaN,NaN,NaN,NaN,NaN,NaN,,NaN,NaN,NaN,NaN,NaN,NaN,"",,NaN,4,0,4,0,1,3,200,0,200,0,1,199,,NaN,200,0,200,0,1,199,,NaN,,NaN,,NaN
