consent_given,screeningQ1,screeningQ2,age,gender,startingValues,rewardVec,decay_rate,replenishRates,travel_duration,feedback_duration,blk_number,blk_type,meanRewardBlock,currentPatchPosition,patchValueLeft,patchValueTop,patchValueRight,patchReplenishLeft,patchReplenishTop,patchReplenishRight,currentPatchReplenishRate,patchValueSlow,patchValueMedium,patchValueFast,patchReplenishSlow,patchReplenishMedium,patchReplenishFast,decisionType,trialPhase,patch_selection_key,patch_selection_RT,actual_rew_gain,rew_fbk_displayed,blk_points,blk_actions,exploit_phase_key,exploit_phase_RT,num_exploit_actions,meanRewardEntireExperiment,total_points,total_actions,actions_remaining,timeInPatch_seconds_,task_instruc_resp_keys,task_instruc_resp_rt,trials_welcome_thisRepN,trials_welcome_thisTrialN,trials_welcome_thisN,trials_welcome_thisIndex,trials_welcome_ran,participant,session,date,expName,psychopyVersion,OS,frameRate,slider_response,slider_rt,trials_screening_thisRepN,trials_screening_thisTrialN,trials_screening_thisN,trials_screening_thisIndex,trials_screening_ran,demo_resp_keys,demo_resp_rt,trials_demographics_thisRepN,trials_demographics_thisTrialN,trials_demographics_thisN,trials_demographics_thisIndex,trials_demographics_ran,key_resp_keys,key_resp_rt,trials_instructions_thisRepN,trials_instructions_thisTrialN,trials_instructions_thisN,trials_instructions_thisIndex,trials_instructions_ran,rewardVectorToManipulate,blk_instruc_resp_keys,blk_instruc_resp_rt,blk_loop_thisRepN,blk_loop_thisTrialN,blk_loop_thisN,blk_loop_thisIndex,blk_loop_ran,blk_loop_order,trials_thisRepN,trials_thisTrialN,trials_thisN,trials_thisIndex,trials_ran,trials_order,sel_resp_keys,sel_resp_rt,exploit_loop_thisRepN,exploit_loop_thisTrialN,exploit_loop_thisN,exploit_loop_thisIndex,exploit_loop_ran,exploit_loop_order,exploit_resp_keys,exploit_resp_rt,post_blk_resp_keys,post_blk_resp_rt,closing_resp_keys,closing_resp_rt
0,0,0,0,0,"0",0,0,"0",0,0,0,0,0,0,0,0,0,0,0,0,0,0,0,0,0,0,0,0,0,0,0,0,0,0,0,0,0,0,0,NaN,NaN,NaN,0,space,2.44629,0,0,0,0,1,66,1,2020-11-11_17h09.37.730,Pirates_expt3,2020.1.2,Win32,60,NaN,NaN,NaN,NaN,NaN,NaN,NaN,,NaN,NaN,NaN,NaN,NaN,NaN,,NaN,NaN,NaN,NaN,NaN,NaN,"",,NaN,NaN,NaN,NaN,NaN,NaN,NaN,NaN,NaN,NaN,NaN,NaN,NaN,,NaN,NaN,NaN,NaN,NaN,NaN,NaN,,NaN,,NaN,,NaN
NaN,NaN,NaN,NaN,NaN,"",NaN,NaN,"",NaN,NaN,NaN,NaN,NaN,NaN,NaN,NaN,NaN,NaN,NaN,NaN,NaN,NaN,NaN,NaN,NaN,NaN,NaN,NaN,NaN,,NaN,NaN,NaN,NaN,NaN,,NaN,NaN,NaN,NaN,NaN,NaN,NaN,space,1.70386,1,0,1,0,1,66,1,2020-11-11_17h09.37.730,Pirates_expt3,2020.1.2,Win32,60,NaN,NaN,NaN,NaN,NaN,NaN,NaN,,NaN,NaN,NaN,NaN,NaN,NaN,,NaN,NaN,NaN,NaN,NaN,NaN,"",,NaN,NaN,NaN,NaN,NaN,NaN,NaN,NaN,NaN,NaN,NaN,NaN,NaN,,NaN,NaN,NaN,NaN,NaN,NaN,NaN,,NaN,,NaN,,NaN
NaN,NaN,NaN,NaN,NaN,"",NaN,NaN,"",NaN,NaN,NaN,NaN,NaN,NaN,NaN,NaN,NaN,NaN,NaN,NaN,NaN,NaN,NaN,NaN,NaN,NaN,NaN,NaN,NaN,,NaN,NaN,NaN,NaN,NaN,,NaN,NaN,NaN,NaN,NaN,NaN,NaN,space,1.884095,2,0,2,0,1,66,1,2020-11-11_17h09.37.730,Pirates_expt3,2020.1.2,Win32,60,NaN,NaN,NaN,NaN,NaN,NaN,NaN,,NaN,NaN,NaN,NaN,NaN,NaN,,NaN,NaN,NaN,NaN,NaN,NaN,"",,NaN,NaN,NaN,NaN,NaN,NaN,NaN,NaN,NaN,NaN,NaN,NaN,NaN,,NaN,NaN,NaN,NaN,NaN,NaN,NaN,,NaN,,NaN,,NaN
NaN,NaN,NaN,NaN,NaN,"",NaN,NaN,"",NaN,NaN,NaN,NaN,NaN,NaN,NaN,NaN,NaN,NaN,NaN,NaN,NaN,NaN,NaN,NaN,NaN,NaN,NaN,NaN,NaN,,NaN,NaN,NaN,NaN,NaN,,NaN,NaN,NaN,NaN,NaN,NaN,NaN,space,1.020165,3,0,3,0,1,66,1,2020-11-11_17h09.37.730,Pirates_expt3,2020.1.2,Win32,60,NaN,NaN,NaN,NaN,NaN,NaN,NaN,,NaN,NaN,NaN,NaN,NaN,NaN,,NaN,NaN,NaN,NaN,NaN,NaN,"",,NaN,NaN,NaN,NaN,NaN,NaN,NaN,NaN,NaN,NaN,NaN,NaN,NaN,,NaN,NaN,NaN,NaN,NaN,NaN,NaN,,NaN,,NaN,,NaN
NaN,NaN,NaN,NaN,NaN,"",NaN,NaN,"",NaN,NaN,NaN,NaN,NaN,NaN,NaN,NaN,NaN,NaN,NaN,NaN,NaN,NaN,NaN,NaN,NaN,NaN,NaN,NaN,NaN,,NaN,NaN,NaN,NaN,NaN,,NaN,NaN,NaN,NaN,NaN,NaN,NaN,space,1.54184,4,0,4,0,1,66,1,2020-11-11_17h09.37.730,Pirates_expt3,2020.1.2,Win32,60,NaN,NaN,NaN,NaN,NaN,NaN,NaN,,NaN,NaN,NaN,NaN,NaN,NaN,,NaN,NaN,NaN,NaN,NaN,NaN,"",,NaN,NaN,NaN,NaN,NaN,NaN,NaN,NaN,NaN,NaN,NaN,NaN,NaN,,NaN,NaN,NaN,NaN,NaN,NaN,NaN,,NaN,,NaN,,NaN
NaN,NaN,NaN,NaN,NaN,"",NaN,NaN,"",NaN,NaN,NaN,NaN,NaN,NaN,NaN,NaN,NaN,NaN,NaN,NaN,NaN,NaN,NaN,NaN,NaN,NaN,NaN,NaN,NaN,,NaN,NaN,NaN,NaN,NaN,,NaN,NaN,NaN,NaN,NaN,NaN,NaN,space,1.84763,5,0,5,0,1,66,1,2020-11-11_17h09.37.730,Pirates_expt3,2020.1.2,Win32,60,NaN,NaN,NaN,NaN,NaN,NaN,NaN,,NaN,NaN,NaN,NaN,NaN,NaN,,NaN,NaN,NaN,NaN,NaN,NaN,"",,NaN,NaN,NaN,NaN,NaN,NaN,NaN,NaN,NaN,NaN,NaN,NaN,NaN,,NaN,NaN,NaN,NaN,NaN,NaN,NaN,,NaN,,NaN,,NaN
1,1,NaN,NaN,NaN,"",NaN,NaN,"",NaN,NaN,NaN,NaN,NaN,NaN,NaN,NaN,NaN,NaN,NaN,NaN,NaN,NaN,NaN,NaN,NaN,NaN,NaN,NaN,NaN,,NaN,NaN,NaN,NaN,NaN,,NaN,NaN,NaN,NaN,NaN,NaN,NaN,,NaN,NaN,NaN,NaN,NaN,NaN,66,1,2020-11-11_17h09.37.730,Pirates_expt3,2020.1.2,Win32,60,4,2.500995,0,0,0,0,1,,NaN,NaN,NaN,NaN,NaN,NaN,,NaN,NaN,NaN,NaN,NaN,NaN,"",,NaN,NaN,NaN,NaN,NaN,NaN,NaN,NaN,NaN,NaN,NaN,NaN,NaN,,NaN,NaN,NaN,NaN,NaN,NaN,NaN,,NaN,,NaN,,NaN
NaN,NaN,1,NaN,NaN,"",NaN,NaN,"",NaN,NaN,NaN,NaN,NaN,NaN,NaN,NaN,NaN,NaN,NaN,NaN,NaN,NaN,NaN,NaN,NaN,NaN,NaN,NaN,NaN,,NaN,NaN,NaN,NaN,NaN,,NaN,NaN,NaN,NaN,NaN,NaN,NaN,,NaN,NaN,NaN,NaN,NaN,NaN,66,1,2020-11-11_17h09.37.730,Pirates_expt3,2020.1.2,Win32,60,3,7.571045,1,0,1,0,1,,NaN,NaN,NaN,NaN,NaN,NaN,,NaN,NaN,NaN,NaN,NaN,NaN,"",,NaN,NaN,NaN,NaN,NaN,NaN,NaN,NaN,NaN,NaN,NaN,NaN,NaN,,NaN,NaN,NaN,NaN,NaN,NaN,NaN,,NaN,,NaN,,NaN
NaN,NaN,NaN,28,NaN,"",NaN,NaN,"",NaN,NaN,NaN,NaN,NaN,NaN,NaN,NaN,NaN,NaN,NaN,NaN,NaN,NaN,NaN,NaN,NaN,NaN,NaN,NaN,NaN,,NaN,NaN,NaN,NaN,NaN,,NaN,NaN,NaN,NaN,NaN,NaN,NaN,,NaN,NaN,NaN,NaN,NaN,NaN,66,1,2020-11-11_17h09.37.730,Pirates_expt3,2020.1.2,Win32,60,NaN,NaN,NaN,NaN,NaN,NaN,NaN,return,59.15033,0,0,0,0,1,,NaN,NaN,NaN,NaN,NaN,NaN,"",,NaN,NaN,NaN,NaN,NaN,NaN,NaN,NaN,NaN,NaN,NaN,NaN,NaN,,NaN,NaN,NaN,NaN,NaN,NaN,NaN,,NaN,,NaN,,NaN
NaN,NaN,NaN,NaN,1,"",NaN,NaN,"",NaN,NaN,NaN,NaN,NaN,NaN,NaN,NaN,NaN,NaN,NaN,NaN,NaN,NaN,NaN,NaN,NaN,NaN,NaN,NaN,NaN,,NaN,NaN,NaN,NaN,NaN,,NaN,NaN,NaN,NaN,NaN,NaN,NaN,,NaN,NaN,NaN,NaN,NaN,NaN,66,1,2020-11-11_17h09.37.730,Pirates_expt3,2020.1.2,Win32,60,NaN,NaN,NaN,NaN,NaN,NaN,NaN,return,5.56363,1,0,1,0,1,,NaN,NaN,NaN,NaN,NaN,NaN,"",,NaN,NaN,NaN,NaN,NaN,NaN,NaN,NaN,NaN,NaN,NaN,NaN,NaN,,NaN,NaN,NaN,NaN,NaN,NaN,NaN,,NaN,,NaN,,NaN
NaN,NaN,NaN,NaN,NaN,"",NaN,NaN,"",NaN,NaN,NaN,NaN,NaN,NaN,NaN,NaN,NaN,NaN,NaN,NaN,NaN,NaN,NaN,NaN,NaN,NaN,NaN,NaN,NaN,,NaN,NaN,NaN,NaN,NaN,,NaN,NaN,NaN,NaN,NaN,NaN,NaN,,NaN,NaN,NaN,NaN,NaN,NaN,66,1,2020-11-11_17h09.37.730,Pirates_expt3,2020.1.2,Win32,60,NaN,NaN,NaN,NaN,NaN,NaN,NaN,,NaN,NaN,NaN,NaN,NaN,NaN,space,57.95693,0,0,0,0,1,"",,NaN,NaN,NaN,NaN,NaN,NaN,NaN,NaN,NaN,NaN,NaN,NaN,NaN,,NaN,NaN,NaN,NaN,NaN,NaN,NaN,,NaN,,NaN,,NaN
NaN,NaN,NaN,NaN,NaN,"",NaN,NaN,"",NaN,NaN,NaN,NaN,NaN,NaN,NaN,NaN,NaN,NaN,NaN,NaN,NaN,NaN,NaN,NaN,NaN,NaN,NaN,NaN,NaN,,NaN,NaN,NaN,NaN,NaN,,NaN,NaN,NaN,NaN,NaN,NaN,NaN,,NaN,NaN,NaN,NaN,NaN,NaN,66,1,2020-11-11_17h09.37.730,Pirates_expt3,2020.1.2,Win32,60,NaN,NaN,NaN,NaN,NaN,NaN,NaN,,NaN,NaN,NaN,NaN,NaN,NaN,space,9.50072,1,0,1,0,1,"",,NaN,NaN,NaN,NaN,NaN,NaN,NaN,NaN,NaN,NaN,NaN,NaN,NaN,,NaN,NaN,NaN,NaN,NaN,NaN,NaN,,NaN,,NaN,,NaN
NaN,NaN,NaN,NaN,NaN,"",NaN,NaN,"",NaN,NaN,NaN,NaN,NaN,NaN,NaN,NaN,NaN,NaN,NaN,NaN,NaN,NaN,NaN,NaN,NaN,NaN,NaN,NaN,NaN,,NaN,NaN,NaN,NaN,NaN,,NaN,NaN,NaN,NaN,NaN,NaN,NaN,,NaN,NaN,NaN,NaN,NaN,NaN,66,1,2020-11-11_17h09.37.730,Pirates_expt3,2020.1.2,Win32,60,NaN,NaN,NaN,NaN,NaN,NaN,NaN,,NaN,NaN,NaN,NaN,NaN,NaN,space,7.320015,2,0,2,0,1,"",,NaN,NaN,NaN,NaN,NaN,NaN,NaN,NaN,NaN,NaN,NaN,NaN,NaN,,NaN,NaN,NaN,NaN,NaN,NaN,NaN,,NaN,,NaN,,NaN
NaN,NaN,NaN,NaN,NaN,"",NaN,NaN,"",NaN,NaN,NaN,NaN,NaN,NaN,NaN,NaN,NaN,NaN,NaN,NaN,NaN,NaN,NaN,NaN,NaN,NaN,NaN,NaN,NaN,,NaN,NaN,NaN,NaN,NaN,,NaN,NaN,NaN,NaN,NaN,NaN,NaN,,NaN,NaN,NaN,NaN,NaN,NaN,66,1,2020-11-11_17h09.37.730,Pirates_expt3,2020.1.2,Win32,60,NaN,NaN,NaN,NaN,NaN,NaN,NaN,,NaN,NaN,NaN,NaN,NaN,NaN,space,19.16273,3,0,3,0,1,"",,NaN,NaN,NaN,NaN,NaN,NaN,NaN,NaN,NaN,NaN,NaN,NaN,NaN,,NaN,NaN,NaN,NaN,NaN,NaN,NaN,,NaN,,NaN,,NaN
NaN,NaN,NaN,NaN,NaN,"",NaN,NaN,"",NaN,NaN,NaN,NaN,NaN,NaN,NaN,NaN,NaN,NaN,NaN,NaN,NaN,NaN,NaN,NaN,NaN,NaN,NaN,NaN,NaN,,NaN,NaN,NaN,NaN,NaN,,NaN,NaN,NaN,NaN,NaN,NaN,NaN,,NaN,NaN,NaN,NaN,NaN,NaN,66,1,2020-11-11_17h09.37.730,Pirates_expt3,2020.1.2,Win32,60,NaN,NaN,NaN,NaN,NaN,NaN,NaN,,NaN,NaN,NaN,NaN,NaN,NaN,space,11.097705,4,0,4,0,1,"",,NaN,NaN,NaN,NaN,NaN,NaN,NaN,NaN,NaN,NaN,NaN,NaN,NaN,,NaN,NaN,NaN,NaN,NaN,NaN,NaN,,NaN,,NaN,,NaN
NaN,NaN,NaN,NaN,NaN,"",NaN,NaN,"",NaN,NaN,NaN,NaN,NaN,NaN,NaN,NaN,NaN,NaN,NaN,NaN,NaN,NaN,NaN,NaN,NaN,NaN,NaN,NaN,NaN,,NaN,NaN,NaN,NaN,NaN,,NaN,NaN,NaN,NaN,NaN,NaN,NaN,,NaN,NaN,NaN,NaN,NaN,NaN,66,1,2020-11-11_17h09.37.730,Pirates_expt3,2020.1.2,Win32,60,NaN,NaN,NaN,NaN,NaN,NaN,NaN,,NaN,NaN,NaN,NaN,NaN,NaN,space,6.858775,5,0,5,0,1,"",,NaN,NaN,NaN,NaN,NaN,NaN,NaN,NaN,NaN,NaN,NaN,NaN,NaN,,NaN,NaN,NaN,NaN,NaN,NaN,NaN,,NaN,,NaN,,NaN
NaN,NaN,NaN,NaN,NaN,"",NaN,NaN,"",NaN,NaN,NaN,NaN,NaN,NaN,NaN,NaN,NaN,NaN,NaN,NaN,NaN,NaN,NaN,NaN,NaN,NaN,NaN,NaN,NaN,,NaN,NaN,NaN,NaN,NaN,,NaN,NaN,NaN,NaN,NaN,NaN,NaN,,NaN,NaN,NaN,NaN,NaN,NaN,66,1,2020-11-11_17h09.37.730,Pirates_expt3,2020.1.2,Win32,60,NaN,NaN,NaN,NaN,NaN,NaN,NaN,,NaN,NaN,NaN,NaN,NaN,NaN,space,37.85435,6,0,6,0,1,"",,NaN,NaN,NaN,NaN,NaN,NaN,NaN,NaN,NaN,NaN,NaN,NaN,NaN,,NaN,NaN,NaN,NaN,NaN,NaN,NaN,,NaN,,NaN,,NaN
NaN,NaN,NaN,NaN,NaN,"",NaN,NaN,"",NaN,NaN,NaN,NaN,NaN,NaN,NaN,NaN,NaN,NaN,NaN,NaN,NaN,NaN,NaN,NaN,NaN,NaN,NaN,NaN,NaN,,NaN,NaN,NaN,NaN,NaN,,NaN,NaN,NaN,NaN,NaN,NaN,NaN,,NaN,NaN,NaN,NaN,NaN,NaN,66,1,2020-11-11_17h09.37.730,Pirates_expt3,2020.1.2,Win32,60,NaN,NaN,NaN,NaN,NaN,NaN,NaN,,NaN,NaN,NaN,NaN,NaN,NaN,space,27.70497,7,0,7,0,1,"",,NaN,NaN,NaN,NaN,NaN,NaN,NaN,NaN,NaN,NaN,NaN,NaN,NaN,,NaN,NaN,NaN,NaN,NaN,NaN,NaN,,NaN,,NaN,,NaN
NaN,NaN,NaN,NaN,NaN,"",NaN,NaN,"",NaN,NaN,NaN,NaN,NaN,NaN,NaN,NaN,NaN,NaN,NaN,NaN,NaN,NaN,NaN,NaN,NaN,NaN,NaN,NaN,NaN,,NaN,NaN,NaN,NaN,NaN,,NaN,NaN,NaN,NaN,NaN,NaN,NaN,,NaN,NaN,NaN,NaN,NaN,NaN,66,1,2020-11-11_17h09.37.730,Pirates_expt3,2020.1.2,Win32,60,NaN,NaN,NaN,NaN,NaN,NaN,NaN,,NaN,NaN,NaN,NaN,NaN,NaN,space,22.840445,8,0,8,0,1,"",,NaN,NaN,NaN,NaN,NaN,NaN,NaN,NaN,NaN,NaN,NaN,NaN,NaN,,NaN,NaN,NaN,NaN,NaN,NaN,NaN,,NaN,,NaN,,NaN
NaN,NaN,NaN,NaN,NaN,"",NaN,NaN,"",NaN,NaN,NaN,NaN,NaN,NaN,NaN,NaN,NaN,NaN,NaN,NaN,NaN,NaN,NaN,NaN,NaN,NaN,NaN,NaN,NaN,,NaN,NaN,NaN,NaN,NaN,,NaN,NaN,NaN,NaN,NaN,NaN,NaN,,NaN,NaN,NaN,NaN,NaN,NaN,66,1,2020-11-11_17h09.37.730,Pirates_expt3,2020.1.2,Win32,60,NaN,NaN,NaN,NaN,NaN,NaN,NaN,,NaN,NaN,NaN,NaN,NaN,NaN,space,3.967125,9,0,9,0,1,"",,NaN,NaN,NaN,NaN,NaN,NaN,NaN,NaN,NaN,NaN,NaN,NaN,NaN,,NaN,NaN,NaN,NaN,NaN,NaN,NaN,,NaN,,NaN,,NaN
NaN,NaN,NaN,NaN,NaN,"[100,100,100]",NaN,0.05,"[0.05,0.15,0.1]",1,1.5,1,1,0,3,76,69,72,0.05,0.15,0.1,0.1,76,72,69,0.05,0.1,0.15,1,1,k,4.272075,0,0,0,1,N/A,0,0,0,0,1,199,0,,NaN,NaN,NaN,NaN,NaN,NaN,66,1,2020-11-11_17h09.37.730,Pirates_expt3,2020.1.2,Win32,60,NaN,NaN,NaN,NaN,NaN,NaN,NaN,,NaN,NaN,NaN,NaN,NaN,NaN,,NaN,NaN,NaN,NaN,NaN,NaN,"[76,69,72]",return,21.87939,4,0,4,0,1,3,200,0,200,0,1,199,,NaN,NaN,NaN,NaN,NaN,NaN,NaN,,NaN,,NaN,,NaN
NaN,NaN,NaN,NaN,NaN,"",NaN,NaN,"",NaN,NaN,1,1,0,3,77,73,74,0.05,0.15,0.1,0.1,77,74,73,0.05,0.1,0.15,0,2,0,0,0,0,0,1,N/A,0,0,0,0,1,199,0,,NaN,NaN,NaN,NaN,NaN,NaN,66,1,2020-11-11_17h09.37.730,Pirates_expt3,2020.1.2,Win32,60,NaN,NaN,NaN,NaN,NaN,NaN,NaN,,NaN,NaN,NaN,NaN,NaN,NaN,,NaN,NaN,NaN,NaN,NaN,NaN,"",,NaN,4,0,4,0,1,3,200,0,200,0,1,199,k,4.272075,NaN,NaN,NaN,NaN,NaN,NaN,,NaN,,NaN,,NaN
NaN,NaN,NaN,NaN,NaN,"",NaN,NaN,"",NaN,NaN,1,1,0,3,77,73,74,0.05,0.15,0.1,0.1,77,74,73,0.05,0.1,0.15,2,3,0,0,74,74,0,1,space,1.201795,0,0,0,1,199,0,,NaN,NaN,NaN,NaN,NaN,NaN,66,1,2020-11-11_17h09.37.730,Pirates_expt3,2020.1.2,Win32,60,NaN,NaN,NaN,NaN,NaN,NaN,NaN,,NaN,NaN,NaN,NaN,NaN,NaN,,NaN,NaN,NaN,NaN,NaN,NaN,"",,NaN,4,0,4,0,1,3,200,0,200,0,1,199,,NaN,200,0,200,0,1,199,,NaN,,NaN,,NaN
NaN,NaN,NaN,NaN,NaN,"",NaN,NaN,"",NaN,NaN,1,1,37,3,78,77,74,0.05,0.15,0.1,0.1,78,74,77,0.05,0.1,0.15,0,4,0,0,74,74,74,2,0,0,0,37,74,2,198,0,,NaN,NaN,NaN,NaN,NaN,NaN,66,1,2020-11-11_17h09.37.730,Pirates_expt3,2020.1.2,Win32,60,NaN,NaN,NaN,NaN,NaN,NaN,NaN,,NaN,NaN,NaN,NaN,NaN,NaN,,NaN,NaN,NaN,NaN,NaN,NaN,"",,NaN,4,0,4,0,1,3,200,0,200,0,1,199,,NaN,200,0,200,0,1,199,space,1.201795,,NaN,,NaN
NaN,NaN,NaN,NaN,NaN,"",NaN,NaN,"",NaN,NaN,NaN,NaN,NaN,NaN,NaN,NaN,NaN,NaN,NaN,NaN,NaN,NaN,NaN,NaN,NaN,NaN,NaN,NaN,NaN,,NaN,NaN,NaN,NaN,NaN,,NaN,NaN,NaN,NaN,NaN,NaN,NaN,,NaN,NaN,NaN,NaN,NaN,NaN,66,1,2020-11-11_17h09.37.730,Pirates_expt3,2020.1.2,Win32,60,NaN,NaN,NaN,NaN,NaN,NaN,NaN,,NaN,NaN,NaN,NaN,NaN,NaN,,NaN,NaN,NaN,NaN,NaN,NaN,"",,NaN,NaN,NaN,NaN,NaN,NaN,NaN,NaN,NaN,NaN,NaN,NaN,NaN,,NaN,0,0,0,0,1,NaN,,NaN,,NaN,,NaN
NaN,NaN,NaN,NaN,NaN,"",NaN,NaN,"",NaN,NaN,1,1,37,3,78,77,71,0.05,0.15,0.1,0.1,78,71,77,0.05,0.1,0.15,2,3,0,0,71,71,74,2,space,0.04257,0,37,74,2,198,0,,NaN,NaN,NaN,NaN,NaN,NaN,66,1,2020-11-11_17h09.37.730,Pirates_expt3,2020.1.2,Win32,60,NaN,NaN,NaN,NaN,NaN,NaN,NaN,,NaN,NaN,NaN,NaN,NaN,NaN,,NaN,NaN,NaN,NaN,NaN,NaN,"",,NaN,4,0,4,0,1,3,200,0,200,0,1,199,,NaN,200,0,200,0,1,199,,NaN,,NaN,,NaN
NaN,NaN,NaN,NaN,NaN,"",NaN,NaN,"",NaN,NaN,1,1,48,3,79,80,71,0.05,0.15,0.1,0.1,79,71,80,0.05,0.1,0.15,0,4,0,0,71,71,145,3,0,0,0,48,145,3,197,0,,NaN,NaN,NaN,NaN,NaN,NaN,66,1,2020-11-11_17h09.37.730,Pirates_expt3,2020.1.2,Win32,60,NaN,NaN,NaN,NaN,NaN,NaN,NaN,,NaN,NaN,NaN,NaN,NaN,NaN,,NaN,NaN,NaN,NaN,NaN,NaN,"",,NaN,4,0,4,0,1,3,200,0,200,0,1,199,,NaN,200,0,200,0,1,199,space,0.04257,,NaN,,NaN
NaN,NaN,NaN,NaN,NaN,"",NaN,NaN,"",NaN,NaN,NaN,NaN,NaN,NaN,NaN,NaN,NaN,NaN,NaN,NaN,NaN,NaN,NaN,NaN,NaN,NaN,NaN,NaN,NaN,,NaN,NaN,NaN,NaN,NaN,,NaN,NaN,NaN,NaN,NaN,NaN,NaN,,NaN,NaN,NaN,NaN,NaN,NaN,66,1,2020-11-11_17h09.37.730,Pirates_expt3,2020.1.2,Win32,60,NaN,NaN,NaN,NaN,NaN,NaN,NaN,,NaN,NaN,NaN,NaN,NaN,NaN,,NaN,NaN,NaN,NaN,NaN,NaN,"",,NaN,NaN,NaN,NaN,NaN,NaN,NaN,NaN,NaN,NaN,NaN,NaN,NaN,,NaN,1,0,1,0,1,NaN,,NaN,,NaN,,NaN
NaN,NaN,NaN,NaN,NaN,"",NaN,NaN,"",NaN,NaN,1,1,48,3,79,80,64,0.05,0.15,0.1,0.1,79,64,80,0.05,0.1,0.15,2,3,0,0,64,64,145,3,space,0.14363,0,48,145,3,197,0,,NaN,NaN,NaN,NaN,NaN,NaN,66,1,2020-11-11_17h09.37.730,Pirates_expt3,2020.1.2,Win32,60,NaN,NaN,NaN,NaN,NaN,NaN,NaN,,NaN,NaN,NaN,NaN,NaN,NaN,,NaN,NaN,NaN,NaN,NaN,NaN,"",,NaN,4,0,4,0,1,3,200,0,200,0,1,199,,NaN,200,0,200,0,1,199,,NaN,,NaN,,NaN
NaN,NaN,NaN,NaN,NaN,"",NaN,NaN,"",NaN,NaN,1,1,52,3,80,83,64,0.05,0.15,0.1,0.1,80,64,83,0.05,0.1,0.15,0,4,0,0,64,64,209,4,0,0,0,52,209,4,196,0,,NaN,NaN,NaN,NaN,NaN,NaN,66,1,2020-11-11_17h09.37.730,Pirates_expt3,2020.1.2,Win32,60,NaN,NaN,NaN,NaN,NaN,NaN,NaN,,NaN,NaN,NaN,NaN,NaN,NaN,,NaN,NaN,NaN,NaN,NaN,NaN,"",,NaN,4,0,4,0,1,3,200,0,200,0,1,199,,NaN,200,0,200,0,1,199,space,0.14363,,NaN,,NaN
NaN,NaN,NaN,NaN,NaN,"",NaN,NaN,"",NaN,NaN,NaN,NaN,NaN,NaN,NaN,NaN,NaN,NaN,NaN,NaN,NaN,NaN,NaN,NaN,NaN,NaN,NaN,NaN,NaN,,NaN,NaN,NaN,NaN,NaN,,NaN,NaN,NaN,NaN,NaN,NaN,NaN,,NaN,NaN,NaN,NaN,NaN,NaN,66,1,2020-11-11_17h09.37.730,Pirates_expt3,2020.1.2,Win32,60,NaN,NaN,NaN,NaN,NaN,NaN,NaN,,NaN,NaN,NaN,NaN,NaN,NaN,,NaN,NaN,NaN,NaN,NaN,NaN,"",,NaN,NaN,NaN,NaN,NaN,NaN,NaN,NaN,NaN,NaN,NaN,NaN,NaN,,NaN,2,0,2,0,1,NaN,,NaN,,NaN,,NaN
NaN,NaN,NaN,NaN,NaN,"",NaN,NaN,"",NaN,NaN,1,1,52,3,80,83,54,0.05,0.15,0.1,0.1,80,54,83,0.05,0.1,0.15,2,3,0,0,54,54,209,4,space,0.132155,0,52,209,4,196,0,,NaN,NaN,NaN,NaN,NaN,NaN,66,1,2020-11-11_17h09.37.730,Pirates_expt3,2020.1.2,Win32,60,NaN,NaN,NaN,NaN,NaN,NaN,NaN,,NaN,NaN,NaN,NaN,NaN,NaN,,NaN,NaN,NaN,NaN,NaN,NaN,"",,NaN,4,0,4,0,1,3,200,0,200,0,1,199,,NaN,200,0,200,0,1,199,,NaN,,NaN,,NaN
NaN,NaN,NaN,NaN,NaN,"",NaN,NaN,"",NaN,NaN,1,1,52,3,81,86,54,0.05,0.15,0.1,0.1,81,54,86,0.05,0.1,0.15,0,4,0,0,54,54,264,5,0,0,0,52,264,5,195,0,,NaN,NaN,NaN,NaN,NaN,NaN,66,1,2020-11-11_17h09.37.730,Pirates_expt3,2020.1.2,Win32,60,NaN,NaN,NaN,NaN,NaN,NaN,NaN,,NaN,NaN,NaN,NaN,NaN,NaN,,NaN,NaN,NaN,NaN,NaN,NaN,"",,NaN,4,0,4,0,1,3,200,0,200,0,1,199,,NaN,200,0,200,0,1,199,space,0.132155,,NaN,,NaN
NaN,NaN,NaN,NaN,NaN,"",NaN,NaN,"",NaN,NaN,NaN,NaN,NaN,NaN,NaN,NaN,NaN,NaN,NaN,NaN,NaN,NaN,NaN,NaN,NaN,NaN,NaN,NaN,NaN,,NaN,NaN,NaN,NaN,NaN,,NaN,NaN,NaN,NaN,NaN,NaN,NaN,,NaN,NaN,NaN,NaN,NaN,NaN,66,1,2020-11-11_17h09.37.730,Pirates_expt3,2020.1.2,Win32,60,NaN,NaN,NaN,NaN,NaN,NaN,NaN,,NaN,NaN,NaN,NaN,NaN,NaN,,NaN,NaN,NaN,NaN,NaN,NaN,"",,NaN,NaN,NaN,NaN,NaN,NaN,NaN,NaN,NaN,NaN,NaN,NaN,NaN,,NaN,3,0,3,0,1,NaN,,NaN,,NaN,,NaN
NaN,NaN,NaN,NaN,NaN,"",NaN,NaN,"",NaN,NaN,1,1,52,3,81,86,44,0.05,0.15,0.1,0.1,81,44,86,0.05,0.1,0.15,2,3,0,0,44,44,264,5,space,0.3459,0,52,264,5,195,0,,NaN,NaN,NaN,NaN,NaN,NaN,66,1,2020-11-11_17h09.37.730,Pirates_expt3,2020.1.2,Win32,60,NaN,NaN,NaN,NaN,NaN,NaN,NaN,,NaN,NaN,NaN,NaN,NaN,NaN,,NaN,NaN,NaN,NaN,NaN,NaN,"",,NaN,4,0,4,0,1,3,200,0,200,0,1,199,,NaN,200,0,200,0,1,199,,NaN,,NaN,,NaN
NaN,NaN,NaN,NaN,NaN,"",NaN,NaN,"",NaN,NaN,1,1,51,3,82,88,44,0.05,0.15,0.1,0.1,82,44,88,0.05,0.1,0.15,0,4,0,0,44,44,309,6,0,0,0,51,309,6,194,0,,NaN,NaN,NaN,NaN,NaN,NaN,66,1,2020-11-11_17h09.37.730,Pirates_expt3,2020.1.2,Win32,60,NaN,NaN,NaN,NaN,NaN,NaN,NaN,,NaN,NaN,NaN,NaN,NaN,NaN,,NaN,NaN,NaN,NaN,NaN,NaN,"",,NaN,4,0,4,0,1,3,200,0,200,0,1,199,,NaN,200,0,200,0,1,199,space,0.3459,,NaN,,NaN
NaN,NaN,NaN,NaN,NaN,"",NaN,NaN,"",NaN,NaN,NaN,NaN,NaN,NaN,NaN,NaN,NaN,NaN,NaN,NaN,NaN,NaN,NaN,NaN,NaN,NaN,NaN,NaN,NaN,,NaN,NaN,NaN,NaN,NaN,,NaN,NaN,NaN,NaN,NaN,NaN,NaN,,NaN,NaN,NaN,NaN,NaN,NaN,66,1,2020-11-11_17h09.37.730,Pirates_expt3,2020.1.2,Win32,60,NaN,NaN,NaN,NaN,NaN,NaN,NaN,,NaN,NaN,NaN,NaN,NaN,NaN,,NaN,NaN,NaN,NaN,NaN,NaN,"",,NaN,NaN,NaN,NaN,NaN,NaN,NaN,NaN,NaN,NaN,NaN,NaN,NaN,,NaN,4,0,4,0,1,NaN,,NaN,,NaN,,NaN
NaN,NaN,NaN,NaN,NaN,"",NaN,NaN,"",NaN,NaN,1,1,51,3,82,88,34,0.05,0.15,0.1,0.1,82,34,88,0.05,0.1,0.15,2,3,0,0,34,34,309,6,space,0.311445,0,51,309,6,194,0,,NaN,NaN,NaN,NaN,NaN,NaN,66,1,2020-11-11_17h09.37.730,Pirates_expt3,2020.1.2,Win32,60,NaN,NaN,NaN,NaN,NaN,NaN,NaN,,NaN,NaN,NaN,NaN,NaN,NaN,,NaN,NaN,NaN,NaN,NaN,NaN,"",,NaN,4,0,4,0,1,3,200,0,200,0,1,199,,NaN,200,0,200,0,1,199,,NaN,,NaN,,NaN
NaN,NaN,NaN,NaN,NaN,"",NaN,NaN,"",NaN,NaN,1,1,49,3,83,90,34,0.05,0.15,0.1,0.1,83,34,90,0.05,0.1,0.15,0,4,0,0,34,34,344,7,0,0,0,49,344,7,193,0,,NaN,NaN,NaN,NaN,NaN,NaN,66,1,2020-11-11_17h09.37.730,Pirates_expt3,2020.1.2,Win32,60,NaN,NaN,NaN,NaN,NaN,NaN,NaN,,NaN,NaN,NaN,NaN,NaN,NaN,,NaN,NaN,NaN,NaN,NaN,NaN,"",,NaN,4,0,4,0,1,3,200,0,200,0,1,199,,NaN,200,0,200,0,1,199,space,0.311445,,NaN,,NaN
NaN,NaN,NaN,NaN,NaN,"",NaN,NaN,"",NaN,NaN,NaN,NaN,NaN,NaN,NaN,NaN,NaN,NaN,NaN,NaN,NaN,NaN,NaN,NaN,NaN,NaN,NaN,NaN,NaN,,NaN,NaN,NaN,NaN,NaN,,NaN,NaN,NaN,NaN,NaN,NaN,NaN,,NaN,NaN,NaN,NaN,NaN,NaN,66,1,2020-11-11_17h09.37.730,Pirates_expt3,2020.1.2,Win32,60,NaN,NaN,NaN,NaN,NaN,NaN,NaN,,NaN,NaN,NaN,NaN,NaN,NaN,,NaN,NaN,NaN,NaN,NaN,NaN,"",,NaN,NaN,NaN,NaN,NaN,NaN,NaN,NaN,NaN,NaN,NaN,NaN,NaN,,NaN,5,0,5,0,1,NaN,,NaN,,NaN,,NaN
NaN,NaN,NaN,NaN,NaN,"",NaN,NaN,"",NaN,NaN,1,1,49,3,83,90,25,0.05,0.15,0.1,0.1,83,25,90,0.05,0.1,0.15,2,3,0,0,25,25,344,7,space,0.30172,0,49,344,7,193,0,,NaN,NaN,NaN,NaN,NaN,NaN,66,1,2020-11-11_17h09.37.730,Pirates_expt3,2020.1.2,Win32,60,NaN,NaN,NaN,NaN,NaN,NaN,NaN,,NaN,NaN,NaN,NaN,NaN,NaN,,NaN,NaN,NaN,NaN,NaN,NaN,"",,NaN,4,0,4,0,1,3,200,0,200,0,1,199,,NaN,200,0,200,0,1,199,,NaN,,NaN,,NaN
NaN,NaN,NaN,NaN,NaN,"",NaN,NaN,"",NaN,NaN,1,1,46,3,84,91,25,0.05,0.15,0.1,0.1,84,25,91,0.05,0.1,0.15,0,4,0,0,25,25,369,8,0,0,0,46,369,8,192,0,,NaN,NaN,NaN,NaN,NaN,NaN,66,1,2020-11-11_17h09.37.730,Pirates_expt3,2020.1.2,Win32,60,NaN,NaN,NaN,NaN,NaN,NaN,NaN,,NaN,NaN,NaN,NaN,NaN,NaN,,NaN,NaN,NaN,NaN,NaN,NaN,"",,NaN,4,0,4,0,1,3,200,0,200,0,1,199,,NaN,200,0,200,0,1,199,space,0.30172,,NaN,,NaN
NaN,NaN,NaN,NaN,NaN,"",NaN,NaN,"",NaN,NaN,NaN,NaN,NaN,NaN,NaN,NaN,NaN,NaN,NaN,NaN,NaN,NaN,NaN,NaN,NaN,NaN,NaN,NaN,NaN,,NaN,NaN,NaN,NaN,NaN,,NaN,NaN,NaN,NaN,NaN,NaN,NaN,,NaN,NaN,NaN,NaN,NaN,NaN,66,1,2020-11-11_17h09.37.730,Pirates_expt3,2020.1.2,Win32,60,NaN,NaN,NaN,NaN,NaN,NaN,NaN,,NaN,NaN,NaN,NaN,NaN,NaN,,NaN,NaN,NaN,NaN,NaN,NaN,"",,NaN,NaN,NaN,NaN,NaN,NaN,NaN,NaN,NaN,NaN,NaN,NaN,NaN,,NaN,6,0,6,0,1,NaN,,NaN,,NaN,,NaN
NaN,NaN,NaN,NaN,NaN,"",NaN,NaN,"",NaN,NaN,1,1,46,3,84,91,17,0.05,0.15,0.1,0.1,84,17,91,0.05,0.1,0.15,2,3,0,0,17,17,369,8,space,0.307035,0,46,369,8,192,0,,NaN,NaN,NaN,NaN,NaN,NaN,66,1,2020-11-11_17h09.37.730,Pirates_expt3,2020.1.2,Win32,60,NaN,NaN,NaN,NaN,NaN,NaN,NaN,,NaN,NaN,NaN,NaN,NaN,NaN,,NaN,NaN,NaN,NaN,NaN,NaN,"",,NaN,4,0,4,0,1,3,200,0,200,0,1,199,,NaN,200,0,200,0,1,199,,NaN,,NaN,,NaN
NaN,NaN,NaN,NaN,NaN,"",NaN,NaN,"",NaN,NaN,1,1,43,3,84,92,17,0.05,0.15,0.1,0.1,84,17,92,0.05,0.1,0.15,0,4,0,0,17,17,387,9,0,0,0,43,387,9,191,0,,NaN,NaN,NaN,NaN,NaN,NaN,66,1,2020-11-11_17h09.37.730,Pirates_expt3,2020.1.2,Win32,60,NaN,NaN,NaN,NaN,NaN,NaN,NaN,,NaN,NaN,NaN,NaN,NaN,NaN,,NaN,NaN,NaN,NaN,NaN,NaN,"",,NaN,4,0,4,0,1,3,200,0,200,0,1,199,,NaN,200,0,200,0,1,199,space,0.307035,,NaN,,NaN
NaN,NaN,NaN,NaN,NaN,"",NaN,NaN,"",NaN,NaN,NaN,NaN,NaN,NaN,NaN,NaN,NaN,NaN,NaN,NaN,NaN,NaN,NaN,NaN,NaN,NaN,NaN,NaN,NaN,,NaN,NaN,NaN,NaN,NaN,,NaN,NaN,NaN,NaN,NaN,NaN,NaN,,NaN,NaN,NaN,NaN,NaN,NaN,66,1,2020-11-11_17h09.37.730,Pirates_expt3,2020.1.2,Win32,60,NaN,NaN,NaN,NaN,NaN,NaN,NaN,,NaN,NaN,NaN,NaN,NaN,NaN,,NaN,NaN,NaN,NaN,NaN,NaN,"",,NaN,NaN,NaN,NaN,NaN,NaN,NaN,NaN,NaN,NaN,NaN,NaN,NaN,,NaN,7,0,7,0,1,NaN,,NaN,,NaN,,NaN
NaN,NaN,NaN,NaN,NaN,"",NaN,NaN,"",NaN,NaN,1,1,43,3,84,92,11,0.05,0.15,0.1,0.1,84,11,92,0.05,0.1,0.15,2,3,0,0,11,11,387,9,space,0.130075,0,43,387,9,191,0,,NaN,NaN,NaN,NaN,NaN,NaN,66,1,2020-11-11_17h09.37.730,Pirates_expt3,2020.1.2,Win32,60,NaN,NaN,NaN,NaN,NaN,NaN,NaN,,NaN,NaN,NaN,NaN,NaN,NaN,,NaN,NaN,NaN,NaN,NaN,NaN,"",,NaN,4,0,4,0,1,3,200,0,200,0,1,199,,NaN,200,0,200,0,1,199,,NaN,,NaN,,NaN
NaN,NaN,NaN,NaN,NaN,"",NaN,NaN,"",NaN,NaN,1,1,39,3,85,93,11,0.05,0.15,0.1,0.1,85,11,93,0.05,0.1,0.15,0,4,0,0,11,11,399,10,0,0,0,39,399,10,190,0,,NaN,NaN,NaN,NaN,NaN,NaN,66,1,2020-11-11_17h09.37.730,Pirates_expt3,2020.1.2,Win32,60,NaN,NaN,NaN,NaN,NaN,NaN,NaN,,NaN,NaN,NaN,NaN,NaN,NaN,,NaN,NaN,NaN,NaN,NaN,NaN,"",,NaN,4,0,4,0,1,3,200,0,200,0,1,199,,NaN,200,0,200,0,1,199,space,0.130075,,NaN,,NaN
NaN,NaN,NaN,NaN,NaN,"",NaN,NaN,"",NaN,NaN,NaN,NaN,NaN,NaN,NaN,NaN,NaN,NaN,NaN,NaN,NaN,NaN,NaN,NaN,NaN,NaN,NaN,NaN,NaN,,NaN,NaN,NaN,NaN,NaN,,NaN,NaN,NaN,NaN,NaN,NaN,NaN,,NaN,NaN,NaN,NaN,NaN,NaN,66,1,2020-11-11_17h09.37.730,Pirates_expt3,2020.1.2,Win32,60,NaN,NaN,NaN,NaN,NaN,NaN,NaN,,NaN,NaN,NaN,NaN,NaN,NaN,,NaN,NaN,NaN,NaN,NaN,NaN,"",,NaN,NaN,NaN,NaN,NaN,NaN,NaN,NaN,NaN,NaN,NaN,NaN,NaN,,NaN,8,0,8,0,1,NaN,,NaN,,NaN,,NaN
NaN,NaN,NaN,NaN,NaN,"",NaN,NaN,"",NaN,NaN,1,1,39,3,85,93,7,0.05,0.15,0.1,0.1,85,7,93,0.05,0.1,0.15,2,3,0,0,7,7,399,10,space,0.0687,0,39,399,10,190,0,,NaN,NaN,NaN,NaN,NaN,NaN,66,1,2020-11-11_17h09.37.730,Pirates_expt3,2020.1.2,Win32,60,NaN,NaN,NaN,NaN,NaN,NaN,NaN,,NaN,NaN,NaN,NaN,NaN,NaN,,NaN,NaN,NaN,NaN,NaN,NaN,"",,NaN,4,0,4,0,1,3,200,0,200,0,1,199,,NaN,200,0,200,0,1,199,,NaN,,NaN,,NaN
NaN,NaN,NaN,NaN,NaN,"",NaN,NaN,"",NaN,NaN,1,1,36,3,86,94,7,0.05,0.15,0.1,0.1,86,7,94,0.05,0.1,0.15,0,4,0,0,7,7,406,11,0,0,0,36,406,11,189,0,,NaN,NaN,NaN,NaN,NaN,NaN,66,1,2020-11-11_17h09.37.730,Pirates_expt3,2020.1.2,Win32,60,NaN,NaN,NaN,NaN,NaN,NaN,NaN,,NaN,NaN,NaN,NaN,NaN,NaN,,NaN,NaN,NaN,NaN,NaN,NaN,"",,NaN,4,0,4,0,1,3,200,0,200,0,1,199,,NaN,200,0,200,0,1,199,space,0.0687,,NaN,,NaN
NaN,NaN,NaN,NaN,NaN,"",NaN,NaN,"",NaN,NaN,NaN,NaN,NaN,NaN,NaN,NaN,NaN,NaN,NaN,NaN,NaN,NaN,NaN,NaN,NaN,NaN,NaN,NaN,NaN,,NaN,NaN,NaN,NaN,NaN,,NaN,NaN,NaN,NaN,NaN,NaN,NaN,,NaN,NaN,NaN,NaN,NaN,NaN,66,1,2020-11-11_17h09.37.730,Pirates_expt3,2020.1.2,Win32,60,NaN,NaN,NaN,NaN,NaN,NaN,NaN,,NaN,NaN,NaN,NaN,NaN,NaN,,NaN,NaN,NaN,NaN,NaN,NaN,"",,NaN,NaN,NaN,NaN,NaN,NaN,NaN,NaN,NaN,NaN,NaN,NaN,NaN,,NaN,9,0,9,0,1,NaN,,NaN,,NaN,,NaN
NaN,NaN,NaN,NaN,NaN,"",NaN,NaN,"",NaN,NaN,1,1,36,3,86,94,4,0.05,0.15,0.1,0.1,86,4,94,0.05,0.1,0.15,2,3,0,0,4,4,406,11,space,0.16165,0,36,406,11,189,0,,NaN,NaN,NaN,NaN,NaN,NaN,66,1,2020-11-11_17h09.37.730,Pirates_expt3,2020.1.2,Win32,60,NaN,NaN,NaN,NaN,NaN,NaN,NaN,,NaN,NaN,NaN,NaN,NaN,NaN,,NaN,NaN,NaN,NaN,NaN,NaN,"",,NaN,4,0,4,0,1,3,200,0,200,0,1,199,,NaN,200,0,200,0,1,199,,NaN,,NaN,,NaN
NaN,NaN,NaN,NaN,NaN,"",NaN,NaN,"",NaN,NaN,1,1,34,3,87,95,4,0.05,0.15,0.1,0.1,87,4,95,0.05,0.1,0.15,0,4,0,0,4,4,411,12,0,0,0,34,411,12,188,0,,NaN,NaN,NaN,NaN,NaN,NaN,66,1,2020-11-11_17h09.37.730,Pirates_expt3,2020.1.2,Win32,60,NaN,NaN,NaN,NaN,NaN,NaN,NaN,,NaN,NaN,NaN,NaN,NaN,NaN,,NaN,NaN,NaN,NaN,NaN,NaN,"",,NaN,4,0,4,0,1,3,200,0,200,0,1,199,,NaN,200,0,200,0,1,199,space,0.16165,,NaN,,NaN
NaN,NaN,NaN,NaN,NaN,"",NaN,NaN,"",NaN,NaN,NaN,NaN,NaN,NaN,NaN,NaN,NaN,NaN,NaN,NaN,NaN,NaN,NaN,NaN,NaN,NaN,NaN,NaN,NaN,,NaN,NaN,NaN,NaN,NaN,,NaN,NaN,NaN,NaN,NaN,NaN,NaN,,NaN,NaN,NaN,NaN,NaN,NaN,66,1,2020-11-11_17h09.37.730,Pirates_expt3,2020.1.2,Win32,60,NaN,NaN,NaN,NaN,NaN,NaN,NaN,,NaN,NaN,NaN,NaN,NaN,NaN,,NaN,NaN,NaN,NaN,NaN,NaN,"",,NaN,NaN,NaN,NaN,NaN,NaN,NaN,NaN,NaN,NaN,NaN,NaN,NaN,,NaN,10,0,10,0,1,NaN,,NaN,,NaN,,NaN
NaN,NaN,NaN,NaN,NaN,"",NaN,NaN,"",NaN,NaN,1,1,34,3,87,95,2,0.05,0.15,0.1,0.1,87,2,95,0.05,0.1,0.15,2,3,0,0,2,2,411,12,space,0.008395,0,34,411,12,188,0,,NaN,NaN,NaN,NaN,NaN,NaN,66,1,2020-11-11_17h09.37.730,Pirates_expt3,2020.1.2,Win32,60,NaN,NaN,NaN,NaN,NaN,NaN,NaN,,NaN,NaN,NaN,NaN,NaN,NaN,,NaN,NaN,NaN,NaN,NaN,NaN,"",,NaN,4,0,4,0,1,3,200,0,200,0,1,199,,NaN,200,0,200,0,1,199,,NaN,,NaN,,NaN
NaN,NaN,NaN,NaN,NaN,"",NaN,NaN,"",NaN,NaN,1,1,31,3,87,96,2,0.05,0.15,0.1,0.1,87,2,96,0.05,0.1,0.15,0,4,0,0,2,2,413,13,0,0,0,31,413,13,187,0,,NaN,NaN,NaN,NaN,NaN,NaN,66,1,2020-11-11_17h09.37.730,Pirates_expt3,2020.1.2,Win32,60,NaN,NaN,NaN,NaN,NaN,NaN,NaN,,NaN,NaN,NaN,NaN,NaN,NaN,,NaN,NaN,NaN,NaN,NaN,NaN,"",,NaN,4,0,4,0,1,3,200,0,200,0,1,199,,NaN,200,0,200,0,1,199,space,0.008395,,NaN,,NaN
NaN,NaN,NaN,NaN,NaN,"",NaN,NaN,"",NaN,NaN,NaN,NaN,NaN,NaN,NaN,NaN,NaN,NaN,NaN,NaN,NaN,NaN,NaN,NaN,NaN,NaN,NaN,NaN,NaN,,NaN,NaN,NaN,NaN,NaN,,NaN,NaN,NaN,NaN,NaN,NaN,NaN,,NaN,NaN,NaN,NaN,NaN,NaN,66,1,2020-11-11_17h09.37.730,Pirates_expt3,2020.1.2,Win32,60,NaN,NaN,NaN,NaN,NaN,NaN,NaN,,NaN,NaN,NaN,NaN,NaN,NaN,,NaN,NaN,NaN,NaN,NaN,NaN,"",,NaN,NaN,NaN,NaN,NaN,NaN,NaN,NaN,NaN,NaN,NaN,NaN,NaN,,NaN,11,0,11,0,1,NaN,,NaN,,NaN,,NaN
NaN,NaN,NaN,NaN,NaN,"",NaN,NaN,"",NaN,NaN,1,1,31,3,87,96,1,0.05,0.15,0.1,0.1,87,1,96,0.05,0.1,0.15,2,3,0,0,1,1,413,13,space,0.089655,0,31,413,13,187,0,,NaN,NaN,NaN,NaN,NaN,NaN,66,1,2020-11-11_17h09.37.730,Pirates_expt3,2020.1.2,Win32,60,NaN,NaN,NaN,NaN,NaN,NaN,NaN,,NaN,NaN,NaN,NaN,NaN,NaN,,NaN,NaN,NaN,NaN,NaN,NaN,"",,NaN,4,0,4,0,1,3,200,0,200,0,1,199,,NaN,200,0,200,0,1,199,,NaN,,NaN,,NaN
NaN,NaN,NaN,NaN,NaN,"",NaN,NaN,"",NaN,NaN,1,1,29,3,88,96,1,0.05,0.15,0.1,0.1,88,1,96,0.05,0.1,0.15,0,4,0,0,1,1,415,14,0,0,0,29,415,14,186,0,,NaN,NaN,NaN,NaN,NaN,NaN,66,1,2020-11-11_17h09.37.730,Pirates_expt3,2020.1.2,Win32,60,NaN,NaN,NaN,NaN,NaN,NaN,NaN,,NaN,NaN,NaN,NaN,NaN,NaN,,NaN,NaN,NaN,NaN,NaN,NaN,"",,NaN,4,0,4,0,1,3,200,0,200,0,1,199,,NaN,200,0,200,0,1,199,space,0.089655,,NaN,,NaN
NaN,NaN,NaN,NaN,NaN,"",NaN,NaN,"",NaN,NaN,NaN,NaN,NaN,NaN,NaN,NaN,NaN,NaN,NaN,NaN,NaN,NaN,NaN,NaN,NaN,NaN,NaN,NaN,NaN,,NaN,NaN,NaN,NaN,NaN,,NaN,NaN,NaN,NaN,NaN,NaN,NaN,,NaN,NaN,NaN,NaN,NaN,NaN,66,1,2020-11-11_17h09.37.730,Pirates_expt3,2020.1.2,Win32,60,NaN,NaN,NaN,NaN,NaN,NaN,NaN,,NaN,NaN,NaN,NaN,NaN,NaN,,NaN,NaN,NaN,NaN,NaN,NaN,"",,NaN,NaN,NaN,NaN,NaN,NaN,NaN,NaN,NaN,NaN,NaN,NaN,NaN,,NaN,12,0,12,0,1,NaN,,NaN,,NaN,,NaN
NaN,NaN,NaN,NaN,NaN,"",NaN,NaN,"",NaN,NaN,1,1,29,3,88,96,0,0.05,0.15,0.1,0.1,88,0,96,0.05,0.1,0.15,3,3,0,0,0,0,415,14,s,0.603955,13,29,415,14,186,0,,NaN,NaN,NaN,NaN,NaN,NaN,66,1,2020-11-11_17h09.37.730,Pirates_expt3,2020.1.2,Win32,60,NaN,NaN,NaN,NaN,NaN,NaN,NaN,,NaN,NaN,NaN,NaN,NaN,NaN,,NaN,NaN,NaN,NaN,NaN,NaN,"",,NaN,4,0,4,0,1,3,200,0,200,0,1,199,,NaN,200,0,200,0,1,199,,NaN,,NaN,,NaN
NaN,NaN,NaN,NaN,NaN,"",NaN,NaN,"",NaN,NaN,1,1,27,3,88,97,10,0.05,0.15,0.1,0.1,88,10,97,0.05,0.1,0.15,0,4,0,0,10,0,415,15,0,0,0,27,415,15,185,23.956,,NaN,NaN,NaN,NaN,NaN,NaN,66,1,2020-11-11_17h09.37.730,Pirates_expt3,2020.1.2,Win32,60,NaN,NaN,NaN,NaN,NaN,NaN,NaN,,NaN,NaN,NaN,NaN,NaN,NaN,,NaN,NaN,NaN,NaN,NaN,NaN,"",,NaN,4,0,4,0,1,3,200,0,200,0,1,199,,NaN,200,0,200,0,1,199,s,0.603955,,NaN,,NaN
NaN,NaN,NaN,NaN,NaN,"",NaN,NaN,"",NaN,NaN,NaN,NaN,NaN,NaN,NaN,NaN,NaN,NaN,NaN,NaN,NaN,NaN,NaN,NaN,NaN,NaN,NaN,NaN,NaN,,NaN,NaN,NaN,NaN,NaN,,NaN,NaN,NaN,NaN,NaN,NaN,NaN,,NaN,NaN,NaN,NaN,NaN,NaN,66,1,2020-11-11_17h09.37.730,Pirates_expt3,2020.1.2,Win32,60,NaN,NaN,NaN,NaN,NaN,NaN,NaN,,NaN,NaN,NaN,NaN,NaN,NaN,,NaN,NaN,NaN,NaN,NaN,NaN,"",,NaN,NaN,NaN,NaN,NaN,NaN,NaN,0,0,0,0,1,NaN,,NaN,NaN,NaN,NaN,NaN,NaN,NaN,,NaN,,NaN,,NaN
NaN,NaN,NaN,NaN,NaN,"",NaN,NaN,"",NaN,NaN,1,1,27,1,88,97,10,0.05,0.15,0.1,0.05,88,10,97,0.05,0.1,0.15,1,1,f,1.875975,0,0,415,16,N/A,0,0,27,415,16,184,0,,NaN,NaN,NaN,NaN,NaN,NaN,66,1,2020-11-11_17h09.37.730,Pirates_expt3,2020.1.2,Win32,60,NaN,NaN,NaN,NaN,NaN,NaN,NaN,,NaN,NaN,NaN,NaN,NaN,NaN,,NaN,NaN,NaN,NaN,NaN,NaN,"",,NaN,4,0,4,0,1,3,200,0,200,0,1,199,,NaN,NaN,NaN,NaN,NaN,NaN,NaN,,NaN,,NaN,,NaN
NaN,NaN,NaN,NaN,NaN,"",NaN,NaN,"",NaN,NaN,1,1,27,1,89,97,19,0.05,0.15,0.1,0.05,89,19,97,0.05,0.1,0.15,0,2,0,0,0,0,415,16,N/A,0,0,27,415,16,184,0,,NaN,NaN,NaN,NaN,NaN,NaN,66,1,2020-11-11_17h09.37.730,Pirates_expt3,2020.1.2,Win32,60,NaN,NaN,NaN,NaN,NaN,NaN,NaN,,NaN,NaN,NaN,NaN,NaN,NaN,,NaN,NaN,NaN,NaN,NaN,NaN,"",,NaN,4,0,4,0,1,3,200,0,200,0,1,199,f,1.875975,NaN,NaN,NaN,NaN,NaN,NaN,,NaN,,NaN,,NaN
NaN,NaN,NaN,NaN,NaN,"",NaN,NaN,"",NaN,NaN,1,1,25,1,89,97,19,0.05,0.15,0.1,0.05,89,19,97,0.05,0.1,0.15,2,3,0,0,89,89,415,16,space,0.60182,0,25,415,16,184,0,,NaN,NaN,NaN,NaN,NaN,NaN,66,1,2020-11-11_17h09.37.730,Pirates_expt3,2020.1.2,Win32,60,NaN,NaN,NaN,NaN,NaN,NaN,NaN,,NaN,NaN,NaN,NaN,NaN,NaN,,NaN,NaN,NaN,NaN,NaN,NaN,"",,NaN,4,0,4,0,1,3,200,0,200,0,1,199,,NaN,200,0,200,0,1,199,,NaN,,NaN,,NaN
NaN,NaN,NaN,NaN,NaN,"",NaN,NaN,"",NaN,NaN,1,1,29,1,89,98,27,0.05,0.15,0.1,0.05,89,27,98,0.05,0.1,0.15,0,4,0,0,89,89,504,17,0,0,0,29,504,17,183,0,,NaN,NaN,NaN,NaN,NaN,NaN,66,1,2020-11-11_17h09.37.730,Pirates_expt3,2020.1.2,Win32,60,NaN,NaN,NaN,NaN,NaN,NaN,NaN,,NaN,NaN,NaN,NaN,NaN,NaN,,NaN,NaN,NaN,NaN,NaN,NaN,"",,NaN,4,0,4,0,1,3,200,0,200,0,1,199,,NaN,200,0,200,0,1,199,space,0.60182,,NaN,,NaN
NaN,NaN,NaN,NaN,NaN,"",NaN,NaN,"",NaN,NaN,NaN,NaN,NaN,NaN,NaN,NaN,NaN,NaN,NaN,NaN,NaN,NaN,NaN,NaN,NaN,NaN,NaN,NaN,NaN,,NaN,NaN,NaN,NaN,NaN,,NaN,NaN,NaN,NaN,NaN,NaN,NaN,,NaN,NaN,NaN,NaN,NaN,NaN,66,1,2020-11-11_17h09.37.730,Pirates_expt3,2020.1.2,Win32,60,NaN,NaN,NaN,NaN,NaN,NaN,NaN,,NaN,NaN,NaN,NaN,NaN,NaN,,NaN,NaN,NaN,NaN,NaN,NaN,"",,NaN,NaN,NaN,NaN,NaN,NaN,NaN,NaN,NaN,NaN,NaN,NaN,NaN,,NaN,0,0,0,0,1,NaN,,NaN,,NaN,,NaN
NaN,NaN,NaN,NaN,NaN,"",NaN,NaN,"",NaN,NaN,1,1,29,1,84,98,27,0.05,0.15,0.1,0.05,84,27,98,0.05,0.1,0.15,2,3,0,0,84,84,504,17,space,0.22214,0,29,504,17,183,0,,NaN,NaN,NaN,NaN,NaN,NaN,66,1,2020-11-11_17h09.37.730,Pirates_expt3,2020.1.2,Win32,60,NaN,NaN,NaN,NaN,NaN,NaN,NaN,,NaN,NaN,NaN,NaN,NaN,NaN,,NaN,NaN,NaN,NaN,NaN,NaN,"",,NaN,4,0,4,0,1,3,200,0,200,0,1,199,,NaN,200,0,200,0,1,199,,NaN,,NaN,,NaN
NaN,NaN,NaN,NaN,NaN,"",NaN,NaN,"",NaN,NaN,1,1,32,1,84,98,34,0.05,0.15,0.1,0.05,84,34,98,0.05,0.1,0.15,0,4,0,0,84,84,589,18,0,0,0,32,589,18,182,0,,NaN,NaN,NaN,NaN,NaN,NaN,66,1,2020-11-11_17h09.37.730,Pirates_expt3,2020.1.2,Win32,60,NaN,NaN,NaN,NaN,NaN,NaN,NaN,,NaN,NaN,NaN,NaN,NaN,NaN,,NaN,NaN,NaN,NaN,NaN,NaN,"",,NaN,4,0,4,0,1,3,200,0,200,0,1,199,,NaN,200,0,200,0,1,199,space,0.22214,,NaN,,NaN
NaN,NaN,NaN,NaN,NaN,"",NaN,NaN,"",NaN,NaN,NaN,NaN,NaN,NaN,NaN,NaN,NaN,NaN,NaN,NaN,NaN,NaN,NaN,NaN,NaN,NaN,NaN,NaN,NaN,,NaN,NaN,NaN,NaN,NaN,,NaN,NaN,NaN,NaN,NaN,NaN,NaN,,NaN,NaN,NaN,NaN,NaN,NaN,66,1,2020-11-11_17h09.37.730,Pirates_expt3,2020.1.2,Win32,60,NaN,NaN,NaN,NaN,NaN,NaN,NaN,,NaN,NaN,NaN,NaN,NaN,NaN,,NaN,NaN,NaN,NaN,NaN,NaN,"",,NaN,NaN,NaN,NaN,NaN,NaN,NaN,NaN,NaN,NaN,NaN,NaN,NaN,,NaN,1,0,1,0,1,NaN,,NaN,,NaN,,NaN
NaN,NaN,NaN,NaN,NaN,"",NaN,NaN,"",NaN,NaN,1,1,32,1,76,98,34,0.05,0.15,0.1,0.05,76,34,98,0.05,0.1,0.15,2,3,0,0,76,76,589,18,space,0.34458,0,32,589,18,182,0,,NaN,NaN,NaN,NaN,NaN,NaN,66,1,2020-11-11_17h09.37.730,Pirates_expt3,2020.1.2,Win32,60,NaN,NaN,NaN,NaN,NaN,NaN,NaN,,NaN,NaN,NaN,NaN,NaN,NaN,,NaN,NaN,NaN,NaN,NaN,NaN,"",,NaN,4,0,4,0,1,3,200,0,200,0,1,199,,NaN,200,0,200,0,1,199,,NaN,,NaN,,NaN
NaN,NaN,NaN,NaN,NaN,"",NaN,NaN,"",NaN,NaN,1,1,35,1,76,98,41,0.05,0.15,0.1,0.05,76,41,98,0.05,0.1,0.15,0,4,0,0,76,76,666,19,0,0,0,35,666,19,181,0,,NaN,NaN,NaN,NaN,NaN,NaN,66,1,2020-11-11_17h09.37.730,Pirates_expt3,2020.1.2,Win32,60,NaN,NaN,NaN,NaN,NaN,NaN,NaN,,NaN,NaN,NaN,NaN,NaN,NaN,,NaN,NaN,NaN,NaN,NaN,NaN,"",,NaN,4,0,4,0,1,3,200,0,200,0,1,199,,NaN,200,0,200,0,1,199,space,0.34458,,NaN,,NaN
NaN,NaN,NaN,NaN,NaN,"",NaN,NaN,"",NaN,NaN,NaN,NaN,NaN,NaN,NaN,NaN,NaN,NaN,NaN,NaN,NaN,NaN,NaN,NaN,NaN,NaN,NaN,NaN,NaN,,NaN,NaN,NaN,NaN,NaN,,NaN,NaN,NaN,NaN,NaN,NaN,NaN,,NaN,NaN,NaN,NaN,NaN,NaN,66,1,2020-11-11_17h09.37.730,Pirates_expt3,2020.1.2,Win32,60,NaN,NaN,NaN,NaN,NaN,NaN,NaN,,NaN,NaN,NaN,NaN,NaN,NaN,,NaN,NaN,NaN,NaN,NaN,NaN,"",,NaN,NaN,NaN,NaN,NaN,NaN,NaN,NaN,NaN,NaN,NaN,NaN,NaN,,NaN,2,0,2,0,1,NaN,,NaN,,NaN,,NaN
NaN,NaN,NaN,NaN,NaN,"",NaN,NaN,"",NaN,NaN,1,1,35,1,65,98,41,0.05,0.15,0.1,0.05,65,41,98,0.05,0.1,0.15,2,3,0,0,65,65,666,19,space,0.328955,0,35,666,19,181,0,,NaN,NaN,NaN,NaN,NaN,NaN,66,1,2020-11-11_17h09.37.730,Pirates_expt3,2020.1.2,Win32,60,NaN,NaN,NaN,NaN,NaN,NaN,NaN,,NaN,NaN,NaN,NaN,NaN,NaN,,NaN,NaN,NaN,NaN,NaN,NaN,"",,NaN,4,0,4,0,1,3,200,0,200,0,1,199,,NaN,200,0,200,0,1,199,,NaN,,NaN,,NaN
NaN,NaN,NaN,NaN,NaN,"",NaN,NaN,"",NaN,NaN,1,1,36,1,65,98,47,0.05,0.15,0.1,0.05,65,47,98,0.05,0.1,0.15,0,4,0,0,65,65,732,20,0,0,0,36,732,20,180,0,,NaN,NaN,NaN,NaN,NaN,NaN,66,1,2020-11-11_17h09.37.730,Pirates_expt3,2020.1.2,Win32,60,NaN,NaN,NaN,NaN,NaN,NaN,NaN,,NaN,NaN,NaN,NaN,NaN,NaN,,NaN,NaN,NaN,NaN,NaN,NaN,"",,NaN,4,0,4,0,1,3,200,0,200,0,1,199,,NaN,200,0,200,0,1,199,space,0.328955,,NaN,,NaN
NaN,NaN,NaN,NaN,NaN,"",NaN,NaN,"",NaN,NaN,NaN,NaN,NaN,NaN,NaN,NaN,NaN,NaN,NaN,NaN,NaN,NaN,NaN,NaN,NaN,NaN,NaN,NaN,NaN,,NaN,NaN,NaN,NaN,NaN,,NaN,NaN,NaN,NaN,NaN,NaN,NaN,,NaN,NaN,NaN,NaN,NaN,NaN,66,1,2020-11-11_17h09.37.730,Pirates_expt3,2020.1.2,Win32,60,NaN,NaN,NaN,NaN,NaN,NaN,NaN,,NaN,NaN,NaN,NaN,NaN,NaN,,NaN,NaN,NaN,NaN,NaN,NaN,"",,NaN,NaN,NaN,NaN,NaN,NaN,NaN,NaN,NaN,NaN,NaN,NaN,NaN,,NaN,3,0,3,0,1,NaN,,NaN,,NaN,,NaN
NaN,NaN,NaN,NaN,NaN,"",NaN,NaN,"",NaN,NaN,1,1,36,1,53,98,47,0.05,0.15,0.1,0.05,53,47,98,0.05,0.1,0.15,2,3,0,0,53,53,732,20,space,0.0143,0,36,732,20,180,0,,NaN,NaN,NaN,NaN,NaN,NaN,66,1,2020-11-11_17h09.37.730,Pirates_expt3,2020.1.2,Win32,60,NaN,NaN,NaN,NaN,NaN,NaN,NaN,,NaN,NaN,NaN,NaN,NaN,NaN,,NaN,NaN,NaN,NaN,NaN,NaN,"",,NaN,4,0,4,0,1,3,200,0,200,0,1,199,,NaN,200,0,200,0,1,199,,NaN,,NaN,,NaN
NaN,NaN,NaN,NaN,NaN,"",NaN,NaN,"",NaN,NaN,1,1,37,1,53,98,52,0.05,0.15,0.1,0.05,53,52,98,0.05,0.1,0.15,0,4,0,0,53,53,785,21,0,0,0,37,785,21,179,0,,NaN,NaN,NaN,NaN,NaN,NaN,66,1,2020-11-11_17h09.37.730,Pirates_expt3,2020.1.2,Win32,60,NaN,NaN,NaN,NaN,NaN,NaN,NaN,,NaN,NaN,NaN,NaN,NaN,NaN,,NaN,NaN,NaN,NaN,NaN,NaN,"",,NaN,4,0,4,0,1,3,200,0,200,0,1,199,,NaN,200,0,200,0,1,199,space,0.0143,,NaN,,NaN
NaN,NaN,NaN,NaN,NaN,"",NaN,NaN,"",NaN,NaN,NaN,NaN,NaN,NaN,NaN,NaN,NaN,NaN,NaN,NaN,NaN,NaN,NaN,NaN,NaN,NaN,NaN,NaN,NaN,,NaN,NaN,NaN,NaN,NaN,,NaN,NaN,NaN,NaN,NaN,NaN,NaN,,NaN,NaN,NaN,NaN,NaN,NaN,66,1,2020-11-11_17h09.37.730,Pirates_expt3,2020.1.2,Win32,60,NaN,NaN,NaN,NaN,NaN,NaN,NaN,,NaN,NaN,NaN,NaN,NaN,NaN,,NaN,NaN,NaN,NaN,NaN,NaN,"",,NaN,NaN,NaN,NaN,NaN,NaN,NaN,NaN,NaN,NaN,NaN,NaN,NaN,,NaN,4,0,4,0,1,NaN,,NaN,,NaN,,NaN
NaN,NaN,NaN,NaN,NaN,"",NaN,NaN,"",NaN,NaN,1,1,37,1,41,98,52,0.05,0.15,0.1,0.05,41,52,98,0.05,0.1,0.15,2,3,0,0,41,41,785,21,space,0.10773,0,37,785,21,179,0,,NaN,NaN,NaN,NaN,NaN,NaN,66,1,2020-11-11_17h09.37.730,Pirates_expt3,2020.1.2,Win32,60,NaN,NaN,NaN,NaN,NaN,NaN,NaN,,NaN,NaN,NaN,NaN,NaN,NaN,,NaN,NaN,NaN,NaN,NaN,NaN,"",,NaN,4,0,4,0,1,3,200,0,200,0,1,199,,NaN,200,0,200,0,1,199,,NaN,,NaN,,NaN
NaN,NaN,NaN,NaN,NaN,"",NaN,NaN,"",NaN,NaN,1,1,37,1,41,99,57,0.05,0.15,0.1,0.05,41,57,99,0.05,0.1,0.15,0,4,0,0,41,41,827,22,0,0,0,37,827,22,178,0,,NaN,NaN,NaN,NaN,NaN,NaN,66,1,2020-11-11_17h09.37.730,Pirates_expt3,2020.1.2,Win32,60,NaN,NaN,NaN,NaN,NaN,NaN,NaN,,NaN,NaN,NaN,NaN,NaN,NaN,,NaN,NaN,NaN,NaN,NaN,NaN,"",,NaN,4,0,4,0,1,3,200,0,200,0,1,199,,NaN,200,0,200,0,1,199,space,0.10773,,NaN,,NaN
NaN,NaN,NaN,NaN,NaN,"",NaN,NaN,"",NaN,NaN,NaN,NaN,NaN,NaN,NaN,NaN,NaN,NaN,NaN,NaN,NaN,NaN,NaN,NaN,NaN,NaN,NaN,NaN,NaN,,NaN,NaN,NaN,NaN,NaN,,NaN,NaN,NaN,NaN,NaN,NaN,NaN,,NaN,NaN,NaN,NaN,NaN,NaN,66,1,2020-11-11_17h09.37.730,Pirates_expt3,2020.1.2,Win32,60,NaN,NaN,NaN,NaN,NaN,NaN,NaN,,NaN,NaN,NaN,NaN,NaN,NaN,,NaN,NaN,NaN,NaN,NaN,NaN,"",,NaN,NaN,NaN,NaN,NaN,NaN,NaN,NaN,NaN,NaN,NaN,NaN,NaN,,NaN,5,0,5,0,1,NaN,,NaN,,NaN,,NaN
NaN,NaN,NaN,NaN,NaN,"",NaN,NaN,"",NaN,NaN,1,1,37,1,30,99,57,0.05,0.15,0.1,0.05,30,57,99,0.05,0.1,0.15,2,3,0,0,30,30,827,22,space,0.06927,0,37,827,22,178,0,,NaN,NaN,NaN,NaN,NaN,NaN,66,1,2020-11-11_17h09.37.730,Pirates_expt3,2020.1.2,Win32,60,NaN,NaN,NaN,NaN,NaN,NaN,NaN,,NaN,NaN,NaN,NaN,NaN,NaN,,NaN,NaN,NaN,NaN,NaN,NaN,"",,NaN,4,0,4,0,1,3,200,0,200,0,1,199,,NaN,200,0,200,0,1,199,,NaN,,NaN,,NaN
NaN,NaN,NaN,NaN,NaN,"",NaN,NaN,"",NaN,NaN,1,1,37,1,30,99,61,0.05,0.15,0.1,0.05,30,61,99,0.05,0.1,0.15,0,4,0,0,30,30,857,23,0,0,0,37,857,23,177,0,,NaN,NaN,NaN,NaN,NaN,NaN,66,1,2020-11-11_17h09.37.730,Pirates_expt3,2020.1.2,Win32,60,NaN,NaN,NaN,NaN,NaN,NaN,NaN,,NaN,NaN,NaN,NaN,NaN,NaN,,NaN,NaN,NaN,NaN,NaN,NaN,"",,NaN,4,0,4,0,1,3,200,0,200,0,1,199,,NaN,200,0,200,0,1,199,space,0.06927,,NaN,,NaN
NaN,NaN,NaN,NaN,NaN,"",NaN,NaN,"",NaN,NaN,NaN,NaN,NaN,NaN,NaN,NaN,NaN,NaN,NaN,NaN,NaN,NaN,NaN,NaN,NaN,NaN,NaN,NaN,NaN,,NaN,NaN,NaN,NaN,NaN,,NaN,NaN,NaN,NaN,NaN,NaN,NaN,,NaN,NaN,NaN,NaN,NaN,NaN,66,1,2020-11-11_17h09.37.730,Pirates_expt3,2020.1.2,Win32,60,NaN,NaN,NaN,NaN,NaN,NaN,NaN,,NaN,NaN,NaN,NaN,NaN,NaN,,NaN,NaN,NaN,NaN,NaN,NaN,"",,NaN,NaN,NaN,NaN,NaN,NaN,NaN,NaN,NaN,NaN,NaN,NaN,NaN,,NaN,6,0,6,0,1,NaN,,NaN,,NaN,,NaN
NaN,NaN,NaN,NaN,NaN,"",NaN,NaN,"",NaN,NaN,1,1,37,1,21,99,61,0.05,0.15,0.1,0.05,21,61,99,0.05,0.1,0.15,2,3,0,0,21,21,857,23,space,0.19589,0,37,857,23,177,0,,NaN,NaN,NaN,NaN,NaN,NaN,66,1,2020-11-11_17h09.37.730,Pirates_expt3,2020.1.2,Win32,60,NaN,NaN,NaN,NaN,NaN,NaN,NaN,,NaN,NaN,NaN,NaN,NaN,NaN,,NaN,NaN,NaN,NaN,NaN,NaN,"",,NaN,4,0,4,0,1,3,200,0,200,0,1,199,,NaN,200,0,200,0,1,199,,NaN,,NaN,,NaN
NaN,NaN,NaN,NaN,NaN,"",NaN,NaN,"",NaN,NaN,1,1,36,1,21,99,65,0.05,0.15,0.1,0.05,21,65,99,0.05,0.1,0.15,0,4,0,0,21,21,878,24,0,0,0,36,878,24,176,0,,NaN,NaN,NaN,NaN,NaN,NaN,66,1,2020-11-11_17h09.37.730,Pirates_expt3,2020.1.2,Win32,60,NaN,NaN,NaN,NaN,NaN,NaN,NaN,,NaN,NaN,NaN,NaN,NaN,NaN,,NaN,NaN,NaN,NaN,NaN,NaN,"",,NaN,4,0,4,0,1,3,200,0,200,0,1,199,,NaN,200,0,200,0,1,199,space,0.19589,,NaN,,NaN
NaN,NaN,NaN,NaN,NaN,"",NaN,NaN,"",NaN,NaN,NaN,NaN,NaN,NaN,NaN,NaN,NaN,NaN,NaN,NaN,NaN,NaN,NaN,NaN,NaN,NaN,NaN,NaN,NaN,,NaN,NaN,NaN,NaN,NaN,,NaN,NaN,NaN,NaN,NaN,NaN,NaN,,NaN,NaN,NaN,NaN,NaN,NaN,66,1,2020-11-11_17h09.37.730,Pirates_expt3,2020.1.2,Win32,60,NaN,NaN,NaN,NaN,NaN,NaN,NaN,,NaN,NaN,NaN,NaN,NaN,NaN,,NaN,NaN,NaN,NaN,NaN,NaN,"",,NaN,NaN,NaN,NaN,NaN,NaN,NaN,NaN,NaN,NaN,NaN,NaN,NaN,,NaN,7,0,7,0,1,NaN,,NaN,,NaN,,NaN
NaN,NaN,NaN,NaN,NaN,"",NaN,NaN,"",NaN,NaN,1,1,36,1,14,99,65,0.05,0.15,0.1,0.05,14,65,99,0.05,0.1,0.15,2,3,0,0,14,14,878,24,space,0.12139,0,36,878,24,176,0,,NaN,NaN,NaN,NaN,NaN,NaN,66,1,2020-11-11_17h09.37.730,Pirates_expt3,2020.1.2,Win32,60,NaN,NaN,NaN,NaN,NaN,NaN,NaN,,NaN,NaN,NaN,NaN,NaN,NaN,,NaN,NaN,NaN,NaN,NaN,NaN,"",,NaN,4,0,4,0,1,3,200,0,200,0,1,199,,NaN,200,0,200,0,1,199,,NaN,,NaN,,NaN
NaN,NaN,NaN,NaN,NaN,"",NaN,NaN,"",NaN,NaN,1,1,35,1,14,99,68,0.05,0.15,0.1,0.05,14,68,99,0.05,0.1,0.15,0,4,0,0,14,14,892,25,0,0,0,35,892,25,175,0,,NaN,NaN,NaN,NaN,NaN,NaN,66,1,2020-11-11_17h09.37.730,Pirates_expt3,2020.1.2,Win32,60,NaN,NaN,NaN,NaN,NaN,NaN,NaN,,NaN,NaN,NaN,NaN,NaN,NaN,,NaN,NaN,NaN,NaN,NaN,NaN,"",,NaN,4,0,4,0,1,3,200,0,200,0,1,199,,NaN,200,0,200,0,1,199,space,0.12139,,NaN,,NaN
NaN,NaN,NaN,NaN,NaN,"",NaN,NaN,"",NaN,NaN,NaN,NaN,NaN,NaN,NaN,NaN,NaN,NaN,NaN,NaN,NaN,NaN,NaN,NaN,NaN,NaN,NaN,NaN,NaN,,NaN,NaN,NaN,NaN,NaN,,NaN,NaN,NaN,NaN,NaN,NaN,NaN,,NaN,NaN,NaN,NaN,NaN,NaN,66,1,2020-11-11_17h09.37.730,Pirates_expt3,2020.1.2,Win32,60,NaN,NaN,NaN,NaN,NaN,NaN,NaN,,NaN,NaN,NaN,NaN,NaN,NaN,,NaN,NaN,NaN,NaN,NaN,NaN,"",,NaN,NaN,NaN,NaN,NaN,NaN,NaN,NaN,NaN,NaN,NaN,NaN,NaN,,NaN,8,0,8,0,1,NaN,,NaN,,NaN,,NaN
NaN,NaN,NaN,NaN,NaN,"",NaN,NaN,"",NaN,NaN,1,1,35,1,8,99,68,0.05,0.15,0.1,0.05,8,68,99,0.05,0.1,0.15,2,3,0,0,8,8,892,25,space,0.20415,0,35,892,25,175,0,,NaN,NaN,NaN,NaN,NaN,NaN,66,1,2020-11-11_17h09.37.730,Pirates_expt3,2020.1.2,Win32,60,NaN,NaN,NaN,NaN,NaN,NaN,NaN,,NaN,NaN,NaN,NaN,NaN,NaN,,NaN,NaN,NaN,NaN,NaN,NaN,"",,NaN,4,0,4,0,1,3,200,0,200,0,1,199,,NaN,200,0,200,0,1,199,,NaN,,NaN,,NaN
NaN,NaN,NaN,NaN,NaN,"",NaN,NaN,"",NaN,NaN,1,1,34,1,8,99,71,0.05,0.15,0.1,0.05,8,71,99,0.05,0.1,0.15,0,4,0,0,8,8,901,26,0,0,0,34,901,26,174,0,,NaN,NaN,NaN,NaN,NaN,NaN,66,1,2020-11-11_17h09.37.730,Pirates_expt3,2020.1.2,Win32,60,NaN,NaN,NaN,NaN,NaN,NaN,NaN,,NaN,NaN,NaN,NaN,NaN,NaN,,NaN,NaN,NaN,NaN,NaN,NaN,"",,NaN,4,0,4,0,1,3,200,0,200,0,1,199,,NaN,200,0,200,0,1,199,space,0.20415,,NaN,,NaN
NaN,NaN,NaN,NaN,NaN,"",NaN,NaN,"",NaN,NaN,NaN,NaN,NaN,NaN,NaN,NaN,NaN,NaN,NaN,NaN,NaN,NaN,NaN,NaN,NaN,NaN,NaN,NaN,NaN,,NaN,NaN,NaN,NaN,NaN,,NaN,NaN,NaN,NaN,NaN,NaN,NaN,,NaN,NaN,NaN,NaN,NaN,NaN,66,1,2020-11-11_17h09.37.730,Pirates_expt3,2020.1.2,Win32,60,NaN,NaN,NaN,NaN,NaN,NaN,NaN,,NaN,NaN,NaN,NaN,NaN,NaN,,NaN,NaN,NaN,NaN,NaN,NaN,"",,NaN,NaN,NaN,NaN,NaN,NaN,NaN,NaN,NaN,NaN,NaN,NaN,NaN,,NaN,9,0,9,0,1,NaN,,NaN,,NaN,,NaN
NaN,NaN,NaN,NaN,NaN,"",NaN,NaN,"",NaN,NaN,1,1,34,1,5,99,71,0.05,0.15,0.1,0.05,5,71,99,0.05,0.1,0.15,2,3,0,0,5,5,901,26,space,0.08599,0,34,901,26,174,0,,NaN,NaN,NaN,NaN,NaN,NaN,66,1,2020-11-11_17h09.37.730,Pirates_expt3,2020.1.2,Win32,60,NaN,NaN,NaN,NaN,NaN,NaN,NaN,,NaN,NaN,NaN,NaN,NaN,NaN,,NaN,NaN,NaN,NaN,NaN,NaN,"",,NaN,4,0,4,0,1,3,200,0,200,0,1,199,,NaN,200,0,200,0,1,199,,NaN,,NaN,,NaN
NaN,NaN,NaN,NaN,NaN,"",NaN,NaN,"",NaN,NaN,1,1,33,1,5,99,74,0.05,0.15,0.1,0.05,5,74,99,0.05,0.1,0.15,0,4,0,0,5,5,907,27,0,0,0,33,907,27,173,0,,NaN,NaN,NaN,NaN,NaN,NaN,66,1,2020-11-11_17h09.37.730,Pirates_expt3,2020.1.2,Win32,60,NaN,NaN,NaN,NaN,NaN,NaN,NaN,,NaN,NaN,NaN,NaN,NaN,NaN,,NaN,NaN,NaN,NaN,NaN,NaN,"",,NaN,4,0,4,0,1,3,200,0,200,0,1,199,,NaN,200,0,200,0,1,199,space,0.08599,,NaN,,NaN
NaN,NaN,NaN,NaN,NaN,"",NaN,NaN,"",NaN,NaN,NaN,NaN,NaN,NaN,NaN,NaN,NaN,NaN,NaN,NaN,NaN,NaN,NaN,NaN,NaN,NaN,NaN,NaN,NaN,,NaN,NaN,NaN,NaN,NaN,,NaN,NaN,NaN,NaN,NaN,NaN,NaN,,NaN,NaN,NaN,NaN,NaN,NaN,66,1,2020-11-11_17h09.37.730,Pirates_expt3,2020.1.2,Win32,60,NaN,NaN,NaN,NaN,NaN,NaN,NaN,,NaN,NaN,NaN,NaN,NaN,NaN,,NaN,NaN,NaN,NaN,NaN,NaN,"",,NaN,NaN,NaN,NaN,NaN,NaN,NaN,NaN,NaN,NaN,NaN,NaN,NaN,,NaN,10,0,10,0,1,NaN,,NaN,,NaN,,NaN
NaN,NaN,NaN,NaN,NaN,"",NaN,NaN,"",NaN,NaN,1,1,33,1,3,99,74,0.05,0.15,0.1,0.05,3,74,99,0.05,0.1,0.15,2,3,0,0,3,3,907,27,space,0.01236,0,33,907,27,173,0,,NaN,NaN,NaN,NaN,NaN,NaN,66,1,2020-11-11_17h09.37.730,Pirates_expt3,2020.1.2,Win32,60,NaN,NaN,NaN,NaN,NaN,NaN,NaN,,NaN,NaN,NaN,NaN,NaN,NaN,,NaN,NaN,NaN,NaN,NaN,NaN,"",,NaN,4,0,4,0,1,3,200,0,200,0,1,199,,NaN,200,0,200,0,1,199,,NaN,,NaN,,NaN
NaN,NaN,NaN,NaN,NaN,"",NaN,NaN,"",NaN,NaN,1,1,32,1,3,99,77,0.05,0.15,0.1,0.05,3,77,99,0.05,0.1,0.15,0,4,0,0,3,3,910,28,0,0,0,32,910,28,172,0,,NaN,NaN,NaN,NaN,NaN,NaN,66,1,2020-11-11_17h09.37.730,Pirates_expt3,2020.1.2,Win32,60,NaN,NaN,NaN,NaN,NaN,NaN,NaN,,NaN,NaN,NaN,NaN,NaN,NaN,,NaN,NaN,NaN,NaN,NaN,NaN,"",,NaN,4,0,4,0,1,3,200,0,200,0,1,199,,NaN,200,0,200,0,1,199,space,0.01236,,NaN,,NaN
NaN,NaN,NaN,NaN,NaN,"",NaN,NaN,"",NaN,NaN,NaN,NaN,NaN,NaN,NaN,NaN,NaN,NaN,NaN,NaN,NaN,NaN,NaN,NaN,NaN,NaN,NaN,NaN,NaN,,NaN,NaN,NaN,NaN,NaN,,NaN,NaN,NaN,NaN,NaN,NaN,NaN,,NaN,NaN,NaN,NaN,NaN,NaN,66,1,2020-11-11_17h09.37.730,Pirates_expt3,2020.1.2,Win32,60,NaN,NaN,NaN,NaN,NaN,NaN,NaN,,NaN,NaN,NaN,NaN,NaN,NaN,,NaN,NaN,NaN,NaN,NaN,NaN,"",,NaN,NaN,NaN,NaN,NaN,NaN,NaN,NaN,NaN,NaN,NaN,NaN,NaN,,NaN,11,0,11,0,1,NaN,,NaN,,NaN,,NaN
NaN,NaN,NaN,NaN,NaN,"",NaN,NaN,"",NaN,NaN,1,1,32,1,1,99,77,0.05,0.15,0.1,0.05,1,77,99,0.05,0.1,0.15,2,3,0,0,1,1,910,28,space,0.15512,0,32,910,28,172,0,,NaN,NaN,NaN,NaN,NaN,NaN,66,1,2020-11-11_17h09.37.730,Pirates_expt3,2020.1.2,Win32,60,NaN,NaN,NaN,NaN,NaN,NaN,NaN,,NaN,NaN,NaN,NaN,NaN,NaN,,NaN,NaN,NaN,NaN,NaN,NaN,"",,NaN,4,0,4,0,1,3,200,0,200,0,1,199,,NaN,200,0,200,0,1,199,,NaN,,NaN,,NaN
NaN,NaN,NaN,NaN,NaN,"",NaN,NaN,"",NaN,NaN,1,1,31,1,1,99,79,0.05,0.15,0.1,0.05,1,79,99,0.05,0.1,0.15,0,4,0,0,1,1,911,29,0,0,0,31,911,29,171,0,,NaN,NaN,NaN,NaN,NaN,NaN,66,1,2020-11-11_17h09.37.730,Pirates_expt3,2020.1.2,Win32,60,NaN,NaN,NaN,NaN,NaN,NaN,NaN,,NaN,NaN,NaN,NaN,NaN,NaN,,NaN,NaN,NaN,NaN,NaN,NaN,"",,NaN,4,0,4,0,1,3,200,0,200,0,1,199,,NaN,200,0,200,0,1,199,space,0.15512,,NaN,,NaN
NaN,NaN,NaN,NaN,NaN,"",NaN,NaN,"",NaN,NaN,NaN,NaN,NaN,NaN,NaN,NaN,NaN,NaN,NaN,NaN,NaN,NaN,NaN,NaN,NaN,NaN,NaN,NaN,NaN,,NaN,NaN,NaN,NaN,NaN,,NaN,NaN,NaN,NaN,NaN,NaN,NaN,,NaN,NaN,NaN,NaN,NaN,NaN,66,1,2020-11-11_17h09.37.730,Pirates_expt3,2020.1.2,Win32,60,NaN,NaN,NaN,NaN,NaN,NaN,NaN,,NaN,NaN,NaN,NaN,NaN,NaN,,NaN,NaN,NaN,NaN,NaN,NaN,"",,NaN,NaN,NaN,NaN,NaN,NaN,NaN,NaN,NaN,NaN,NaN,NaN,NaN,,NaN,12,0,12,0,1,NaN,,NaN,,NaN,,NaN
NaN,NaN,NaN,NaN,NaN,"",NaN,NaN,"",NaN,NaN,1,1,31,1,0,99,79,0.05,0.15,0.1,0.05,0,79,99,0.05,0.1,0.15,3,3,0,0,0,0,911,29,s,1.721135,13,31,911,29,171,0,,NaN,NaN,NaN,NaN,NaN,NaN,66,1,2020-11-11_17h09.37.730,Pirates_expt3,2020.1.2,Win32,60,NaN,NaN,NaN,NaN,NaN,NaN,NaN,,NaN,NaN,NaN,NaN,NaN,NaN,,NaN,NaN,NaN,NaN,NaN,NaN,"",,NaN,4,0,4,0,1,3,200,0,200,0,1,199,,NaN,200,0,200,0,1,199,,NaN,,NaN,,NaN
NaN,NaN,NaN,NaN,NaN,"",NaN,NaN,"",NaN,NaN,1,1,30,1,5,99,81,0.05,0.15,0.1,0.05,5,81,99,0.05,0.1,0.15,0,4,0,0,5,0,911,30,0,0,0,30,911,30,170,24.298,,NaN,NaN,NaN,NaN,NaN,NaN,66,1,2020-11-11_17h09.37.730,Pirates_expt3,2020.1.2,Win32,60,NaN,NaN,NaN,NaN,NaN,NaN,NaN,,NaN,NaN,NaN,NaN,NaN,NaN,,NaN,NaN,NaN,NaN,NaN,NaN,"",,NaN,4,0,4,0,1,3,200,0,200,0,1,199,,NaN,200,0,200,0,1,199,s,1.721135,,NaN,,NaN
NaN,NaN,NaN,NaN,NaN,"",NaN,NaN,"",NaN,NaN,NaN,NaN,NaN,NaN,NaN,NaN,NaN,NaN,NaN,NaN,NaN,NaN,NaN,NaN,NaN,NaN,NaN,NaN,NaN,,NaN,NaN,NaN,NaN,NaN,,NaN,NaN,NaN,NaN,NaN,NaN,NaN,,NaN,NaN,NaN,NaN,NaN,NaN,66,1,2020-11-11_17h09.37.730,Pirates_expt3,2020.1.2,Win32,60,NaN,NaN,NaN,NaN,NaN,NaN,NaN,,NaN,NaN,NaN,NaN,NaN,NaN,,NaN,NaN,NaN,NaN,NaN,NaN,"",,NaN,NaN,NaN,NaN,NaN,NaN,NaN,1,0,1,0,1,NaN,,NaN,NaN,NaN,NaN,NaN,NaN,NaN,,NaN,,NaN,,NaN
NaN,NaN,NaN,NaN,NaN,"",NaN,NaN,"",NaN,NaN,1,1,30,3,5,99,81,0.05,0.15,0.1,0.1,5,81,99,0.05,0.1,0.15,1,1,k,1.321705,0,0,911,31,N/A,0,0,30,911,31,169,0,,NaN,NaN,NaN,NaN,NaN,NaN,66,1,2020-11-11_17h09.37.730,Pirates_expt3,2020.1.2,Win32,60,NaN,NaN,NaN,NaN,NaN,NaN,NaN,,NaN,NaN,NaN,NaN,NaN,NaN,,NaN,NaN,NaN,NaN,NaN,NaN,"",,NaN,4,0,4,0,1,3,200,0,200,0,1,199,,NaN,NaN,NaN,NaN,NaN,NaN,NaN,,NaN,,NaN,,NaN
NaN,NaN,NaN,NaN,NaN,"",NaN,NaN,"",NaN,NaN,1,1,30,3,10,99,83,0.05,0.15,0.1,0.1,10,83,99,0.05,0.1,0.15,0,2,0,0,0,0,911,31,N/A,0,0,30,911,31,169,0,,NaN,NaN,NaN,NaN,NaN,NaN,66,1,2020-11-11_17h09.37.730,Pirates_expt3,2020.1.2,Win32,60,NaN,NaN,NaN,NaN,NaN,NaN,NaN,,NaN,NaN,NaN,NaN,NaN,NaN,,NaN,NaN,NaN,NaN,NaN,NaN,"",,NaN,4,0,4,0,1,3,200,0,200,0,1,199,k,1.321705,NaN,NaN,NaN,NaN,NaN,NaN,,NaN,,NaN,,NaN
NaN,NaN,NaN,NaN,NaN,"",NaN,NaN,"",NaN,NaN,1,1,29,3,10,99,83,0.05,0.15,0.1,0.1,10,83,99,0.05,0.1,0.15,2,3,0,0,83,83,911,31,space,0.634835,0,29,911,31,169,0,,NaN,NaN,NaN,NaN,NaN,NaN,66,1,2020-11-11_17h09.37.730,Pirates_expt3,2020.1.2,Win32,60,NaN,NaN,NaN,NaN,NaN,NaN,NaN,,NaN,NaN,NaN,NaN,NaN,NaN,,NaN,NaN,NaN,NaN,NaN,NaN,"",,NaN,4,0,4,0,1,3,200,0,200,0,1,199,,NaN,200,0,200,0,1,199,,NaN,,NaN,,NaN
NaN,NaN,NaN,NaN,NaN,"",NaN,NaN,"",NaN,NaN,1,1,31,3,14,99,83,0.05,0.15,0.1,0.1,14,83,99,0.05,0.1,0.15,0,4,0,0,83,83,995,32,0,0,0,31,995,32,168,0,,NaN,NaN,NaN,NaN,NaN,NaN,66,1,2020-11-11_17h09.37.730,Pirates_expt3,2020.1.2,Win32,60,NaN,NaN,NaN,NaN,NaN,NaN,NaN,,NaN,NaN,NaN,NaN,NaN,NaN,,NaN,NaN,NaN,NaN,NaN,NaN,"",,NaN,4,0,4,0,1,3,200,0,200,0,1,199,,NaN,200,0,200,0,1,199,space,0.634835,,NaN,,NaN
NaN,NaN,NaN,NaN,NaN,"",NaN,NaN,"",NaN,NaN,NaN,NaN,NaN,NaN,NaN,NaN,NaN,NaN,NaN,NaN,NaN,NaN,NaN,NaN,NaN,NaN,NaN,NaN,NaN,,NaN,NaN,NaN,NaN,NaN,,NaN,NaN,NaN,NaN,NaN,NaN,NaN,,NaN,NaN,NaN,NaN,NaN,NaN,66,1,2020-11-11_17h09.37.730,Pirates_expt3,2020.1.2,Win32,60,NaN,NaN,NaN,NaN,NaN,NaN,NaN,,NaN,NaN,NaN,NaN,NaN,NaN,,NaN,NaN,NaN,NaN,NaN,NaN,"",,NaN,NaN,NaN,NaN,NaN,NaN,NaN,NaN,NaN,NaN,NaN,NaN,NaN,,NaN,0,0,0,0,1,NaN,,NaN,,NaN,,NaN
NaN,NaN,NaN,NaN,NaN,"",NaN,NaN,"",NaN,NaN,1,1,31,3,14,99,79,0.05,0.15,0.1,0.1,14,79,99,0.05,0.1,0.15,2,3,0,0,79,79,995,32,space,0.137375,0,31,995,32,168,0,,NaN,NaN,NaN,NaN,NaN,NaN,66,1,2020-11-11_17h09.37.730,Pirates_expt3,2020.1.2,Win32,60,NaN,NaN,NaN,NaN,NaN,NaN,NaN,,NaN,NaN,NaN,NaN,NaN,NaN,,NaN,NaN,NaN,NaN,NaN,NaN,"",,NaN,4,0,4,0,1,3,200,0,200,0,1,199,,NaN,200,0,200,0,1,199,,NaN,,NaN,,NaN
NaN,NaN,NaN,NaN,NaN,"",NaN,NaN,"",NaN,NaN,1,1,32,3,19,99,79,0.05,0.15,0.1,0.1,19,79,99,0.05,0.1,0.15,0,4,0,0,79,79,1074,33,0,0,0,32,1074,33,167,0,,NaN,NaN,NaN,NaN,NaN,NaN,66,1,2020-11-11_17h09.37.730,Pirates_expt3,2020.1.2,Win32,60,NaN,NaN,NaN,NaN,NaN,NaN,NaN,,NaN,NaN,NaN,NaN,NaN,NaN,,NaN,NaN,NaN,NaN,NaN,NaN,"",,NaN,4,0,4,0,1,3,200,0,200,0,1,199,,NaN,200,0,200,0,1,199,space,0.137375,,NaN,,NaN
NaN,NaN,NaN,NaN,NaN,"",NaN,NaN,"",NaN,NaN,NaN,NaN,NaN,NaN,NaN,NaN,NaN,NaN,NaN,NaN,NaN,NaN,NaN,NaN,NaN,NaN,NaN,NaN,NaN,,NaN,NaN,NaN,NaN,NaN,,NaN,NaN,NaN,NaN,NaN,NaN,NaN,,NaN,NaN,NaN,NaN,NaN,NaN,66,1,2020-11-11_17h09.37.730,Pirates_expt3,2020.1.2,Win32,60,NaN,NaN,NaN,NaN,NaN,NaN,NaN,,NaN,NaN,NaN,NaN,NaN,NaN,,NaN,NaN,NaN,NaN,NaN,NaN,"",,NaN,NaN,NaN,NaN,NaN,NaN,NaN,NaN,NaN,NaN,NaN,NaN,NaN,,NaN,1,0,1,0,1,NaN,,NaN,,NaN,,NaN
NaN,NaN,NaN,NaN,NaN,"",NaN,NaN,"",NaN,NaN,1,1,32,3,19,99,71,0.05,0.15,0.1,0.1,19,71,99,0.05,0.1,0.15,2,3,0,0,71,71,1074,33,space,0.0873,0,32,1074,33,167,0,,NaN,NaN,NaN,NaN,NaN,NaN,66,1,2020-11-11_17h09.37.730,Pirates_expt3,2020.1.2,Win32,60,NaN,NaN,NaN,NaN,NaN,NaN,NaN,,NaN,NaN,NaN,NaN,NaN,NaN,,NaN,NaN,NaN,NaN,NaN,NaN,"",,NaN,4,0,4,0,1,3,200,0,200,0,1,199,,NaN,200,0,200,0,1,199,,NaN,,NaN,,NaN
NaN,NaN,NaN,NaN,NaN,"",NaN,NaN,"",NaN,NaN,1,1,33,3,23,99,71,0.05,0.15,0.1,0.1,23,71,99,0.05,0.1,0.15,0,4,0,0,71,71,1146,34,0,0,0,33,1146,34,166,0,,NaN,NaN,NaN,NaN,NaN,NaN,66,1,2020-11-11_17h09.37.730,Pirates_expt3,2020.1.2,Win32,60,NaN,NaN,NaN,NaN,NaN,NaN,NaN,,NaN,NaN,NaN,NaN,NaN,NaN,,NaN,NaN,NaN,NaN,NaN,NaN,"",,NaN,4,0,4,0,1,3,200,0,200,0,1,199,,NaN,200,0,200,0,1,199,space,0.0873,,NaN,,NaN
NaN,NaN,NaN,NaN,NaN,"",NaN,NaN,"",NaN,NaN,NaN,NaN,NaN,NaN,NaN,NaN,NaN,NaN,NaN,NaN,NaN,NaN,NaN,NaN,NaN,NaN,NaN,NaN,NaN,,NaN,NaN,NaN,NaN,NaN,,NaN,NaN,NaN,NaN,NaN,NaN,NaN,,NaN,NaN,NaN,NaN,NaN,NaN,66,1,2020-11-11_17h09.37.730,Pirates_expt3,2020.1.2,Win32,60,NaN,NaN,NaN,NaN,NaN,NaN,NaN,,NaN,NaN,NaN,NaN,NaN,NaN,,NaN,NaN,NaN,NaN,NaN,NaN,"",,NaN,NaN,NaN,NaN,NaN,NaN,NaN,NaN,NaN,NaN,NaN,NaN,NaN,,NaN,2,0,2,0,1,NaN,,NaN,,NaN,,NaN
NaN,NaN,NaN,NaN,NaN,"",NaN,NaN,"",NaN,NaN,1,1,33,3,23,99,61,0.05,0.15,0.1,0.1,23,61,99,0.05,0.1,0.15,2,3,0,0,61,61,1146,34,space,0.001685,0,33,1146,34,166,0,,NaN,NaN,NaN,NaN,NaN,NaN,66,1,2020-11-11_17h09.37.730,Pirates_expt3,2020.1.2,Win32,60,NaN,NaN,NaN,NaN,NaN,NaN,NaN,,NaN,NaN,NaN,NaN,NaN,NaN,,NaN,NaN,NaN,NaN,NaN,NaN,"",,NaN,4,0,4,0,1,3,200,0,200,0,1,199,,NaN,200,0,200,0,1,199,,NaN,,NaN,,NaN
NaN,NaN,NaN,NaN,NaN,"",NaN,NaN,"",NaN,NaN,1,1,34,3,27,99,61,0.05,0.15,0.1,0.1,27,61,99,0.05,0.1,0.15,0,4,0,0,61,61,1207,35,0,0,0,34,1207,35,165,0,,NaN,NaN,NaN,NaN,NaN,NaN,66,1,2020-11-11_17h09.37.730,Pirates_expt3,2020.1.2,Win32,60,NaN,NaN,NaN,NaN,NaN,NaN,NaN,,NaN,NaN,NaN,NaN,NaN,NaN,,NaN,NaN,NaN,NaN,NaN,NaN,"",,NaN,4,0,4,0,1,3,200,0,200,0,1,199,,NaN,200,0,200,0,1,199,space,0.001685,,NaN,,NaN
NaN,NaN,NaN,NaN,NaN,"",NaN,NaN,"",NaN,NaN,NaN,NaN,NaN,NaN,NaN,NaN,NaN,NaN,NaN,NaN,NaN,NaN,NaN,NaN,NaN,NaN,NaN,NaN,NaN,,NaN,NaN,NaN,NaN,NaN,,NaN,NaN,NaN,NaN,NaN,NaN,NaN,,NaN,NaN,NaN,NaN,NaN,NaN,66,1,2020-11-11_17h09.37.730,Pirates_expt3,2020.1.2,Win32,60,NaN,NaN,NaN,NaN,NaN,NaN,NaN,,NaN,NaN,NaN,NaN,NaN,NaN,,NaN,NaN,NaN,NaN,NaN,NaN,"",,NaN,NaN,NaN,NaN,NaN,NaN,NaN,NaN,NaN,NaN,NaN,NaN,NaN,,NaN,3,0,3,0,1,NaN,,NaN,,NaN,,NaN
NaN,NaN,NaN,NaN,NaN,"",NaN,NaN,"",NaN,NaN,1,1,34,3,27,99,49,0.05,0.15,0.1,0.1,27,49,99,0.05,0.1,0.15,2,3,0,0,49,49,1207,35,space,0.20952,0,34,1207,35,165,0,,NaN,NaN,NaN,NaN,NaN,NaN,66,1,2020-11-11_17h09.37.730,Pirates_expt3,2020.1.2,Win32,60,NaN,NaN,NaN,NaN,NaN,NaN,NaN,,NaN,NaN,NaN,NaN,NaN,NaN,,NaN,NaN,NaN,NaN,NaN,NaN,"",,NaN,4,0,4,0,1,3,200,0,200,0,1,199,,NaN,200,0,200,0,1,199,,NaN,,NaN,,NaN
NaN,NaN,NaN,NaN,NaN,"",NaN,NaN,"",NaN,NaN,1,1,34,3,30,99,49,0.05,0.15,0.1,0.1,30,49,99,0.05,0.1,0.15,0,4,0,0,49,49,1257,36,0,0,0,34,1257,36,164,0,,NaN,NaN,NaN,NaN,NaN,NaN,66,1,2020-11-11_17h09.37.730,Pirates_expt3,2020.1.2,Win32,60,NaN,NaN,NaN,NaN,NaN,NaN,NaN,,NaN,NaN,NaN,NaN,NaN,NaN,,NaN,NaN,NaN,NaN,NaN,NaN,"",,NaN,4,0,4,0,1,3,200,0,200,0,1,199,,NaN,200,0,200,0,1,199,space,0.20952,,NaN,,NaN
NaN,NaN,NaN,NaN,NaN,"",NaN,NaN,"",NaN,NaN,NaN,NaN,NaN,NaN,NaN,NaN,NaN,NaN,NaN,NaN,NaN,NaN,NaN,NaN,NaN,NaN,NaN,NaN,NaN,,NaN,NaN,NaN,NaN,NaN,,NaN,NaN,NaN,NaN,NaN,NaN,NaN,,NaN,NaN,NaN,NaN,NaN,NaN,66,1,2020-11-11_17h09.37.730,Pirates_expt3,2020.1.2,Win32,60,NaN,NaN,NaN,NaN,NaN,NaN,NaN,,NaN,NaN,NaN,NaN,NaN,NaN,,NaN,NaN,NaN,NaN,NaN,NaN,"",,NaN,NaN,NaN,NaN,NaN,NaN,NaN,NaN,NaN,NaN,NaN,NaN,NaN,,NaN,4,0,4,0,1,NaN,,NaN,,NaN,,NaN
NaN,NaN,NaN,NaN,NaN,"",NaN,NaN,"",NaN,NaN,1,1,34,3,30,99,38,0.05,0.15,0.1,0.1,30,38,99,0.05,0.1,0.15,2,3,0,0,38,38,1257,36,space,0.021355,0,34,1257,36,164,0,,NaN,NaN,NaN,NaN,NaN,NaN,66,1,2020-11-11_17h09.37.730,Pirates_expt3,2020.1.2,Win32,60,NaN,NaN,NaN,NaN,NaN,NaN,NaN,,NaN,NaN,NaN,NaN,NaN,NaN,,NaN,NaN,NaN,NaN,NaN,NaN,"",,NaN,4,0,4,0,1,3,200,0,200,0,1,199,,NaN,200,0,200,0,1,199,,NaN,,NaN,,NaN
NaN,NaN,NaN,NaN,NaN,"",NaN,NaN,"",NaN,NaN,1,1,35,3,34,99,38,0.05,0.15,0.1,0.1,34,38,99,0.05,0.1,0.15,0,4,0,0,38,38,1296,37,0,0,0,35,1296,37,163,0,,NaN,NaN,NaN,NaN,NaN,NaN,66,1,2020-11-11_17h09.37.730,Pirates_expt3,2020.1.2,Win32,60,NaN,NaN,NaN,NaN,NaN,NaN,NaN,,NaN,NaN,NaN,NaN,NaN,NaN,,NaN,NaN,NaN,NaN,NaN,NaN,"",,NaN,4,0,4,0,1,3,200,0,200,0,1,199,,NaN,200,0,200,0,1,199,space,0.021355,,NaN,,NaN
NaN,NaN,NaN,NaN,NaN,"",NaN,NaN,"",NaN,NaN,NaN,NaN,NaN,NaN,NaN,NaN,NaN,NaN,NaN,NaN,NaN,NaN,NaN,NaN,NaN,NaN,NaN,NaN,NaN,,NaN,NaN,NaN,NaN,NaN,,NaN,NaN,NaN,NaN,NaN,NaN,NaN,,NaN,NaN,NaN,NaN,NaN,NaN,66,1,2020-11-11_17h09.37.730,Pirates_expt3,2020.1.2,Win32,60,NaN,NaN,NaN,NaN,NaN,NaN,NaN,,NaN,NaN,NaN,NaN,NaN,NaN,,NaN,NaN,NaN,NaN,NaN,NaN,"",,NaN,NaN,NaN,NaN,NaN,NaN,NaN,NaN,NaN,NaN,NaN,NaN,NaN,,NaN,5,0,5,0,1,NaN,,NaN,,NaN,,NaN
NaN,NaN,NaN,NaN,NaN,"",NaN,NaN,"",NaN,NaN,1,1,35,3,34,99,28,0.05,0.15,0.1,0.1,34,28,99,0.05,0.1,0.15,2,3,0,0,28,28,1296,37,space,0.224,0,35,1296,37,163,0,,NaN,NaN,NaN,NaN,NaN,NaN,66,1,2020-11-11_17h09.37.730,Pirates_expt3,2020.1.2,Win32,60,NaN,NaN,NaN,NaN,NaN,NaN,NaN,,NaN,NaN,NaN,NaN,NaN,NaN,,NaN,NaN,NaN,NaN,NaN,NaN,"",,NaN,4,0,4,0,1,3,200,0,200,0,1,199,,NaN,200,0,200,0,1,199,,NaN,,NaN,,NaN
NaN,NaN,NaN,NaN,NaN,"",NaN,NaN,"",NaN,NaN,1,1,34,3,37,99,28,0.05,0.15,0.1,0.1,37,28,99,0.05,0.1,0.15,0,4,0,0,28,28,1324,38,0,0,0,34,1324,38,162,0,,NaN,NaN,NaN,NaN,NaN,NaN,66,1,2020-11-11_17h09.37.730,Pirates_expt3,2020.1.2,Win32,60,NaN,NaN,NaN,NaN,NaN,NaN,NaN,,NaN,NaN,NaN,NaN,NaN,NaN,,NaN,NaN,NaN,NaN,NaN,NaN,"",,NaN,4,0,4,0,1,3,200,0,200,0,1,199,,NaN,200,0,200,0,1,199,space,0.224,,NaN,,NaN
NaN,NaN,NaN,NaN,NaN,"",NaN,NaN,"",NaN,NaN,NaN,NaN,NaN,NaN,NaN,NaN,NaN,NaN,NaN,NaN,NaN,NaN,NaN,NaN,NaN,NaN,NaN,NaN,NaN,,NaN,NaN,NaN,NaN,NaN,,NaN,NaN,NaN,NaN,NaN,NaN,NaN,,NaN,NaN,NaN,NaN,NaN,NaN,66,1,2020-11-11_17h09.37.730,Pirates_expt3,2020.1.2,Win32,60,NaN,NaN,NaN,NaN,NaN,NaN,NaN,,NaN,NaN,NaN,NaN,NaN,NaN,,NaN,NaN,NaN,NaN,NaN,NaN,"",,NaN,NaN,NaN,NaN,NaN,NaN,NaN,NaN,NaN,NaN,NaN,NaN,NaN,,NaN,6,0,6,0,1,NaN,,NaN,,NaN,,NaN
NaN,NaN,NaN,NaN,NaN,"",NaN,NaN,"",NaN,NaN,1,1,34,3,37,99,19,0.05,0.15,0.1,0.1,37,19,99,0.05,0.1,0.15,2,3,0,0,19,19,1324,38,space,0.5242,0,34,1324,38,162,0,,NaN,NaN,NaN,NaN,NaN,NaN,66,1,2020-11-11_17h09.37.730,Pirates_expt3,2020.1.2,Win32,60,NaN,NaN,NaN,NaN,NaN,NaN,NaN,,NaN,NaN,NaN,NaN,NaN,NaN,,NaN,NaN,NaN,NaN,NaN,NaN,"",,NaN,4,0,4,0,1,3,200,0,200,0,1,199,,NaN,200,0,200,0,1,199,,NaN,,NaN,,NaN
NaN,NaN,NaN,NaN,NaN,"",NaN,NaN,"",NaN,NaN,1,1,34,3,40,99,19,0.05,0.15,0.1,0.1,40,19,99,0.05,0.1,0.15,0,4,0,0,19,19,1344,39,0,0,0,34,1344,39,161,0,,NaN,NaN,NaN,NaN,NaN,NaN,66,1,2020-11-11_17h09.37.730,Pirates_expt3,2020.1.2,Win32,60,NaN,NaN,NaN,NaN,NaN,NaN,NaN,,NaN,NaN,NaN,NaN,NaN,NaN,,NaN,NaN,NaN,NaN,NaN,NaN,"",,NaN,4,0,4,0,1,3,200,0,200,0,1,199,,NaN,200,0,200,0,1,199,space,0.5242,,NaN,,NaN
NaN,NaN,NaN,NaN,NaN,"",NaN,NaN,"",NaN,NaN,NaN,NaN,NaN,NaN,NaN,NaN,NaN,NaN,NaN,NaN,NaN,NaN,NaN,NaN,NaN,NaN,NaN,NaN,NaN,,NaN,NaN,NaN,NaN,NaN,,NaN,NaN,NaN,NaN,NaN,NaN,NaN,,NaN,NaN,NaN,NaN,NaN,NaN,66,1,2020-11-11_17h09.37.730,Pirates_expt3,2020.1.2,Win32,60,NaN,NaN,NaN,NaN,NaN,NaN,NaN,,NaN,NaN,NaN,NaN,NaN,NaN,,NaN,NaN,NaN,NaN,NaN,NaN,"",,NaN,NaN,NaN,NaN,NaN,NaN,NaN,NaN,NaN,NaN,NaN,NaN,NaN,,NaN,7,0,7,0,1,NaN,,NaN,,NaN,,NaN
NaN,NaN,NaN,NaN,NaN,"",NaN,NaN,"",NaN,NaN,1,1,34,3,40,99,13,0.05,0.15,0.1,0.1,40,13,99,0.05,0.1,0.15,2,3,0,0,13,13,1344,39,space,0.0014,0,34,1344,39,161,0,,NaN,NaN,NaN,NaN,NaN,NaN,66,1,2020-11-11_17h09.37.730,Pirates_expt3,2020.1.2,Win32,60,NaN,NaN,NaN,NaN,NaN,NaN,NaN,,NaN,NaN,NaN,NaN,NaN,NaN,,NaN,NaN,NaN,NaN,NaN,NaN,"",,NaN,4,0,4,0,1,3,200,0,200,0,1,199,,NaN,200,0,200,0,1,199,,NaN,,NaN,,NaN
NaN,NaN,NaN,NaN,NaN,"",NaN,NaN,"",NaN,NaN,1,1,33,3,43,99,13,0.05,0.15,0.1,0.1,43,13,99,0.05,0.1,0.15,0,4,0,0,13,13,1357,40,0,0,0,33,1357,40,160,0,,NaN,NaN,NaN,NaN,NaN,NaN,66,1,2020-11-11_17h09.37.730,Pirates_expt3,2020.1.2,Win32,60,NaN,NaN,NaN,NaN,NaN,NaN,NaN,,NaN,NaN,NaN,NaN,NaN,NaN,,NaN,NaN,NaN,NaN,NaN,NaN,"",,NaN,4,0,4,0,1,3,200,0,200,0,1,199,,NaN,200,0,200,0,1,199,space,0.0014,,NaN,,NaN
NaN,NaN,NaN,NaN,NaN,"",NaN,NaN,"",NaN,NaN,NaN,NaN,NaN,NaN,NaN,NaN,NaN,NaN,NaN,NaN,NaN,NaN,NaN,NaN,NaN,NaN,NaN,NaN,NaN,,NaN,NaN,NaN,NaN,NaN,,NaN,NaN,NaN,NaN,NaN,NaN,NaN,,NaN,NaN,NaN,NaN,NaN,NaN,66,1,2020-11-11_17h09.37.730,Pirates_expt3,2020.1.2,Win32,60,NaN,NaN,NaN,NaN,NaN,NaN,NaN,,NaN,NaN,NaN,NaN,NaN,NaN,,NaN,NaN,NaN,NaN,NaN,NaN,"",,NaN,NaN,NaN,NaN,NaN,NaN,NaN,NaN,NaN,NaN,NaN,NaN,NaN,,NaN,8,0,8,0,1,NaN,,NaN,,NaN,,NaN
NaN,NaN,NaN,NaN,NaN,"",NaN,NaN,"",NaN,NaN,1,1,33,3,43,99,8,0.05,0.15,0.1,0.1,43,8,99,0.05,0.1,0.15,2,3,0,0,8,8,1357,40,space,0.21695,0,33,1357,40,160,0,,NaN,NaN,NaN,NaN,NaN,NaN,66,1,2020-11-11_17h09.37.730,Pirates_expt3,2020.1.2,Win32,60,NaN,NaN,NaN,NaN,NaN,NaN,NaN,,NaN,NaN,NaN,NaN,NaN,NaN,,NaN,NaN,NaN,NaN,NaN,NaN,"",,NaN,4,0,4,0,1,3,200,0,200,0,1,199,,NaN,200,0,200,0,1,199,,NaN,,NaN,,NaN
NaN,NaN,NaN,NaN,NaN,"",NaN,NaN,"",NaN,NaN,1,1,33,3,46,99,8,0.05,0.15,0.1,0.1,46,8,99,0.05,0.1,0.15,0,4,0,0,8,8,1365,41,0,0,0,33,1365,41,159,0,,NaN,NaN,NaN,NaN,NaN,NaN,66,1,2020-11-11_17h09.37.730,Pirates_expt3,2020.1.2,Win32,60,NaN,NaN,NaN,NaN,NaN,NaN,NaN,,NaN,NaN,NaN,NaN,NaN,NaN,,NaN,NaN,NaN,NaN,NaN,NaN,"",,NaN,4,0,4,0,1,3,200,0,200,0,1,199,,NaN,200,0,200,0,1,199,space,0.21695,,NaN,,NaN
NaN,NaN,NaN,NaN,NaN,"",NaN,NaN,"",NaN,NaN,NaN,NaN,NaN,NaN,NaN,NaN,NaN,NaN,NaN,NaN,NaN,NaN,NaN,NaN,NaN,NaN,NaN,NaN,NaN,,NaN,NaN,NaN,NaN,NaN,,NaN,NaN,NaN,NaN,NaN,NaN,NaN,,NaN,NaN,NaN,NaN,NaN,NaN,66,1,2020-11-11_17h09.37.730,Pirates_expt3,2020.1.2,Win32,60,NaN,NaN,NaN,NaN,NaN,NaN,NaN,,NaN,NaN,NaN,NaN,NaN,NaN,,NaN,NaN,NaN,NaN,NaN,NaN,"",,NaN,NaN,NaN,NaN,NaN,NaN,NaN,NaN,NaN,NaN,NaN,NaN,NaN,,NaN,9,0,9,0,1,NaN,,NaN,,NaN,,NaN
NaN,NaN,NaN,NaN,NaN,"",NaN,NaN,"",NaN,NaN,1,1,33,3,46,99,4,0.05,0.15,0.1,0.1,46,4,99,0.05,0.1,0.15,2,3,0,0,4,4,1365,41,space,0.13129,0,33,1365,41,159,0,,NaN,NaN,NaN,NaN,NaN,NaN,66,1,2020-11-11_17h09.37.730,Pirates_expt3,2020.1.2,Win32,60,NaN,NaN,NaN,NaN,NaN,NaN,NaN,,NaN,NaN,NaN,NaN,NaN,NaN,,NaN,NaN,NaN,NaN,NaN,NaN,"",,NaN,4,0,4,0,1,3,200,0,200,0,1,199,,NaN,200,0,200,0,1,199,,NaN,,NaN,,NaN
NaN,NaN,NaN,NaN,NaN,"",NaN,NaN,"",NaN,NaN,1,1,32,3,49,99,4,0.05,0.15,0.1,0.1,49,4,99,0.05,0.1,0.15,0,4,0,0,4,4,1370,42,0,0,0,32,1370,42,158,0,,NaN,NaN,NaN,NaN,NaN,NaN,66,1,2020-11-11_17h09.37.730,Pirates_expt3,2020.1.2,Win32,60,NaN,NaN,NaN,NaN,NaN,NaN,NaN,,NaN,NaN,NaN,NaN,NaN,NaN,,NaN,NaN,NaN,NaN,NaN,NaN,"",,NaN,4,0,4,0,1,3,200,0,200,0,1,199,,NaN,200,0,200,0,1,199,space,0.13129,,NaN,,NaN
NaN,NaN,NaN,NaN,NaN,"",NaN,NaN,"",NaN,NaN,NaN,NaN,NaN,NaN,NaN,NaN,NaN,NaN,NaN,NaN,NaN,NaN,NaN,NaN,NaN,NaN,NaN,NaN,NaN,,NaN,NaN,NaN,NaN,NaN,,NaN,NaN,NaN,NaN,NaN,NaN,NaN,,NaN,NaN,NaN,NaN,NaN,NaN,66,1,2020-11-11_17h09.37.730,Pirates_expt3,2020.1.2,Win32,60,NaN,NaN,NaN,NaN,NaN,NaN,NaN,,NaN,NaN,NaN,NaN,NaN,NaN,,NaN,NaN,NaN,NaN,NaN,NaN,"",,NaN,NaN,NaN,NaN,NaN,NaN,NaN,NaN,NaN,NaN,NaN,NaN,NaN,,NaN,10,0,10,0,1,NaN,,NaN,,NaN,,NaN
NaN,NaN,NaN,NaN,NaN,"",NaN,NaN,"",NaN,NaN,1,1,32,3,49,99,2,0.05,0.15,0.1,0.1,49,2,99,0.05,0.1,0.15,2,3,0,0,2,2,1370,42,space,0.236245,0,32,1370,42,158,0,,NaN,NaN,NaN,NaN,NaN,NaN,66,1,2020-11-11_17h09.37.730,Pirates_expt3,2020.1.2,Win32,60,NaN,NaN,NaN,NaN,NaN,NaN,NaN,,NaN,NaN,NaN,NaN,NaN,NaN,,NaN,NaN,NaN,NaN,NaN,NaN,"",,NaN,4,0,4,0,1,3,200,0,200,0,1,199,,NaN,200,0,200,0,1,199,,NaN,,NaN,,NaN
NaN,NaN,NaN,NaN,NaN,"",NaN,NaN,"",NaN,NaN,1,1,31,3,51,99,2,0.05,0.15,0.1,0.1,51,2,99,0.05,0.1,0.15,0,4,0,0,2,2,1373,43,0,0,0,31,1373,43,157,0,,NaN,NaN,NaN,NaN,NaN,NaN,66,1,2020-11-11_17h09.37.730,Pirates_expt3,2020.1.2,Win32,60,NaN,NaN,NaN,NaN,NaN,NaN,NaN,,NaN,NaN,NaN,NaN,NaN,NaN,,NaN,NaN,NaN,NaN,NaN,NaN,"",,NaN,4,0,4,0,1,3,200,0,200,0,1,199,,NaN,200,0,200,0,1,199,space,0.236245,,NaN,,NaN
NaN,NaN,NaN,NaN,NaN,"",NaN,NaN,"",NaN,NaN,NaN,NaN,NaN,NaN,NaN,NaN,NaN,NaN,NaN,NaN,NaN,NaN,NaN,NaN,NaN,NaN,NaN,NaN,NaN,,NaN,NaN,NaN,NaN,NaN,,NaN,NaN,NaN,NaN,NaN,NaN,NaN,,NaN,NaN,NaN,NaN,NaN,NaN,66,1,2020-11-11_17h09.37.730,Pirates_expt3,2020.1.2,Win32,60,NaN,NaN,NaN,NaN,NaN,NaN,NaN,,NaN,NaN,NaN,NaN,NaN,NaN,,NaN,NaN,NaN,NaN,NaN,NaN,"",,NaN,NaN,NaN,NaN,NaN,NaN,NaN,NaN,NaN,NaN,NaN,NaN,NaN,,NaN,11,0,11,0,1,NaN,,NaN,,NaN,,NaN
NaN,NaN,NaN,NaN,NaN,"",NaN,NaN,"",NaN,NaN,1,1,31,3,51,99,1,0.05,0.15,0.1,0.1,51,1,99,0.05,0.1,0.15,2,3,0,0,1,1,1373,43,space,0.28585,0,31,1373,43,157,0,,NaN,NaN,NaN,NaN,NaN,NaN,66,1,2020-11-11_17h09.37.730,Pirates_expt3,2020.1.2,Win32,60,NaN,NaN,NaN,NaN,NaN,NaN,NaN,,NaN,NaN,NaN,NaN,NaN,NaN,,NaN,NaN,NaN,NaN,NaN,NaN,"",,NaN,4,0,4,0,1,3,200,0,200,0,1,199,,NaN,200,0,200,0,1,199,,NaN,,NaN,,NaN
NaN,NaN,NaN,NaN,NaN,"",NaN,NaN,"",NaN,NaN,1,1,31,3,54,99,1,0.05,0.15,0.1,0.1,54,1,99,0.05,0.1,0.15,0,4,0,0,1,1,1375,44,0,0,0,31,1375,44,156,0,,NaN,NaN,NaN,NaN,NaN,NaN,66,1,2020-11-11_17h09.37.730,Pirates_expt3,2020.1.2,Win32,60,NaN,NaN,NaN,NaN,NaN,NaN,NaN,,NaN,NaN,NaN,NaN,NaN,NaN,,NaN,NaN,NaN,NaN,NaN,NaN,"",,NaN,4,0,4,0,1,3,200,0,200,0,1,199,,NaN,200,0,200,0,1,199,space,0.28585,,NaN,,NaN
NaN,NaN,NaN,NaN,NaN,"",NaN,NaN,"",NaN,NaN,NaN,NaN,NaN,NaN,NaN,NaN,NaN,NaN,NaN,NaN,NaN,NaN,NaN,NaN,NaN,NaN,NaN,NaN,NaN,,NaN,NaN,NaN,NaN,NaN,,NaN,NaN,NaN,NaN,NaN,NaN,NaN,,NaN,NaN,NaN,NaN,NaN,NaN,66,1,2020-11-11_17h09.37.730,Pirates_expt3,2020.1.2,Win32,60,NaN,NaN,NaN,NaN,NaN,NaN,NaN,,NaN,NaN,NaN,NaN,NaN,NaN,,NaN,NaN,NaN,NaN,NaN,NaN,"",,NaN,NaN,NaN,NaN,NaN,NaN,NaN,NaN,NaN,NaN,NaN,NaN,NaN,,NaN,12,0,12,0,1,NaN,,NaN,,NaN,,NaN
NaN,NaN,NaN,NaN,NaN,"",NaN,NaN,"",NaN,NaN,1,1,31,3,54,99,0,0.05,0.15,0.1,0.1,54,0,99,0.05,0.1,0.15,2,3,0,0,0,0,1375,44,space,0.427495,0,31,1375,44,156,0,,NaN,NaN,NaN,NaN,NaN,NaN,66,1,2020-11-11_17h09.37.730,Pirates_expt3,2020.1.2,Win32,60,NaN,NaN,NaN,NaN,NaN,NaN,NaN,,NaN,NaN,NaN,NaN,NaN,NaN,,NaN,NaN,NaN,NaN,NaN,NaN,"",,NaN,4,0,4,0,1,3,200,0,200,0,1,199,,NaN,200,0,200,0,1,199,,NaN,,NaN,,NaN
NaN,NaN,NaN,NaN,NaN,"",NaN,NaN,"",NaN,NaN,1,1,30,3,56,99,0,0.05,0.15,0.1,0.1,56,0,99,0.05,0.1,0.15,0,4,0,0,0,0,1375,45,0,0,0,30,1375,45,155,0,,NaN,NaN,NaN,NaN,NaN,NaN,66,1,2020-11-11_17h09.37.730,Pirates_expt3,2020.1.2,Win32,60,NaN,NaN,NaN,NaN,NaN,NaN,NaN,,NaN,NaN,NaN,NaN,NaN,NaN,,NaN,NaN,NaN,NaN,NaN,NaN,"",,NaN,4,0,4,0,1,3,200,0,200,0,1,199,,NaN,200,0,200,0,1,199,space,0.427495,,NaN,,NaN
NaN,NaN,NaN,NaN,NaN,"",NaN,NaN,"",NaN,NaN,NaN,NaN,NaN,NaN,NaN,NaN,NaN,NaN,NaN,NaN,NaN,NaN,NaN,NaN,NaN,NaN,NaN,NaN,NaN,,NaN,NaN,NaN,NaN,NaN,,NaN,NaN,NaN,NaN,NaN,NaN,NaN,,NaN,NaN,NaN,NaN,NaN,NaN,66,1,2020-11-11_17h09.37.730,Pirates_expt3,2020.1.2,Win32,60,NaN,NaN,NaN,NaN,NaN,NaN,NaN,,NaN,NaN,NaN,NaN,NaN,NaN,,NaN,NaN,NaN,NaN,NaN,NaN,"",,NaN,NaN,NaN,NaN,NaN,NaN,NaN,NaN,NaN,NaN,NaN,NaN,NaN,,NaN,13,0,13,0,1,NaN,,NaN,,NaN,,NaN
NaN,NaN,NaN,NaN,NaN,"",NaN,NaN,"",NaN,NaN,1,1,30,3,56,99,0,0.05,0.15,0.1,0.1,56,0,99,0.05,0.1,0.15,3,3,0,0,0,0,1375,45,s,0.67677,14,30,1375,45,155,0,,NaN,NaN,NaN,NaN,NaN,NaN,66,1,2020-11-11_17h09.37.730,Pirates_expt3,2020.1.2,Win32,60,NaN,NaN,NaN,NaN,NaN,NaN,NaN,,NaN,NaN,NaN,NaN,NaN,NaN,,NaN,NaN,NaN,NaN,NaN,NaN,"",,NaN,4,0,4,0,1,3,200,0,200,0,1,199,,NaN,200,0,200,0,1,199,,NaN,,NaN,,NaN
NaN,NaN,NaN,NaN,NaN,"",NaN,NaN,"",NaN,NaN,1,1,29,3,58,99,10,0.05,0.15,0.1,0.1,58,10,99,0.05,0.1,0.15,0,4,0,0,10,0,1375,46,0,0,0,29,1375,46,154,25.515,,NaN,NaN,NaN,NaN,NaN,NaN,66,1,2020-11-11_17h09.37.730,Pirates_expt3,2020.1.2,Win32,60,NaN,NaN,NaN,NaN,NaN,NaN,NaN,,NaN,NaN,NaN,NaN,NaN,NaN,,NaN,NaN,NaN,NaN,NaN,NaN,"",,NaN,4,0,4,0,1,3,200,0,200,0,1,199,,NaN,200,0,200,0,1,199,s,0.67677,,NaN,,NaN
NaN,NaN,NaN,NaN,NaN,"",NaN,NaN,"",NaN,NaN,NaN,NaN,NaN,NaN,NaN,NaN,NaN,NaN,NaN,NaN,NaN,NaN,NaN,NaN,NaN,NaN,NaN,NaN,NaN,,NaN,NaN,NaN,NaN,NaN,,NaN,NaN,NaN,NaN,NaN,NaN,NaN,,NaN,NaN,NaN,NaN,NaN,NaN,66,1,2020-11-11_17h09.37.730,Pirates_expt3,2020.1.2,Win32,60,NaN,NaN,NaN,NaN,NaN,NaN,NaN,,NaN,NaN,NaN,NaN,NaN,NaN,,NaN,NaN,NaN,NaN,NaN,NaN,"",,NaN,NaN,NaN,NaN,NaN,NaN,NaN,2,0,2,0,1,NaN,,NaN,NaN,NaN,NaN,NaN,NaN,NaN,,NaN,,NaN,,NaN
NaN,NaN,NaN,NaN,NaN,"",NaN,NaN,"",NaN,NaN,1,1,29,1,58,99,10,0.05,0.15,0.1,0.05,58,10,99,0.05,0.1,0.15,1,1,f,2.111205,0,0,1375,47,N/A,0,0,29,1375,47,153,0,,NaN,NaN,NaN,NaN,NaN,NaN,66,1,2020-11-11_17h09.37.730,Pirates_expt3,2020.1.2,Win32,60,NaN,NaN,NaN,NaN,NaN,NaN,NaN,,NaN,NaN,NaN,NaN,NaN,NaN,,NaN,NaN,NaN,NaN,NaN,NaN,"",,NaN,4,0,4,0,1,3,200,0,200,0,1,199,,NaN,NaN,NaN,NaN,NaN,NaN,NaN,,NaN,,NaN,,NaN
NaN,NaN,NaN,NaN,NaN,"",NaN,NaN,"",NaN,NaN,1,1,29,1,60,99,19,0.05,0.15,0.1,0.05,60,19,99,0.05,0.1,0.15,0,2,0,0,0,0,1375,47,N/A,0,0,29,1375,47,153,0,,NaN,NaN,NaN,NaN,NaN,NaN,66,1,2020-11-11_17h09.37.730,Pirates_expt3,2020.1.2,Win32,60,NaN,NaN,NaN,NaN,NaN,NaN,NaN,,NaN,NaN,NaN,NaN,NaN,NaN,,NaN,NaN,NaN,NaN,NaN,NaN,"",,NaN,4,0,4,0,1,3,200,0,200,0,1,199,f,2.111205,NaN,NaN,NaN,NaN,NaN,NaN,,NaN,,NaN,,NaN
NaN,NaN,NaN,NaN,NaN,"",NaN,NaN,"",NaN,NaN,1,1,29,1,60,99,19,0.05,0.15,0.1,0.05,60,19,99,0.05,0.1,0.15,2,3,0,0,60,60,1375,47,space,0.512895,0,29,1375,47,153,0,,NaN,NaN,NaN,NaN,NaN,NaN,66,1,2020-11-11_17h09.37.730,Pirates_expt3,2020.1.2,Win32,60,NaN,NaN,NaN,NaN,NaN,NaN,NaN,,NaN,NaN,NaN,NaN,NaN,NaN,,NaN,NaN,NaN,NaN,NaN,NaN,"",,NaN,4,0,4,0,1,3,200,0,200,0,1,199,,NaN,200,0,200,0,1,199,,NaN,,NaN,,NaN
NaN,NaN,NaN,NaN,NaN,"",NaN,NaN,"",NaN,NaN,1,1,29,1,60,99,27,0.05,0.15,0.1,0.05,60,27,99,0.05,0.1,0.15,0,4,0,0,60,60,1436,48,0,0,0,29,1436,48,152,0,,NaN,NaN,NaN,NaN,NaN,NaN,66,1,2020-11-11_17h09.37.730,Pirates_expt3,2020.1.2,Win32,60,NaN,NaN,NaN,NaN,NaN,NaN,NaN,,NaN,NaN,NaN,NaN,NaN,NaN,,NaN,NaN,NaN,NaN,NaN,NaN,"",,NaN,4,0,4,0,1,3,200,0,200,0,1,199,,NaN,200,0,200,0,1,199,space,0.512895,,NaN,,NaN
NaN,NaN,NaN,NaN,NaN,"",NaN,NaN,"",NaN,NaN,NaN,NaN,NaN,NaN,NaN,NaN,NaN,NaN,NaN,NaN,NaN,NaN,NaN,NaN,NaN,NaN,NaN,NaN,NaN,,NaN,NaN,NaN,NaN,NaN,,NaN,NaN,NaN,NaN,NaN,NaN,NaN,,NaN,NaN,NaN,NaN,NaN,NaN,66,1,2020-11-11_17h09.37.730,Pirates_expt3,2020.1.2,Win32,60,NaN,NaN,NaN,NaN,NaN,NaN,NaN,,NaN,NaN,NaN,NaN,NaN,NaN,,NaN,NaN,NaN,NaN,NaN,NaN,"",,NaN,NaN,NaN,NaN,NaN,NaN,NaN,NaN,NaN,NaN,NaN,NaN,NaN,,NaN,0,0,0,0,1,NaN,,NaN,,NaN,,NaN
NaN,NaN,NaN,NaN,NaN,"",NaN,NaN,"",NaN,NaN,1,1,29,1,57,99,27,0.05,0.15,0.1,0.05,57,27,99,0.05,0.1,0.15,2,3,0,0,57,57,1436,48,space,0.250535,0,29,1436,48,152,0,,NaN,NaN,NaN,NaN,NaN,NaN,66,1,2020-11-11_17h09.37.730,Pirates_expt3,2020.1.2,Win32,60,NaN,NaN,NaN,NaN,NaN,NaN,NaN,,NaN,NaN,NaN,NaN,NaN,NaN,,NaN,NaN,NaN,NaN,NaN,NaN,"",,NaN,4,0,4,0,1,3,200,0,200,0,1,199,,NaN,200,0,200,0,1,199,,NaN,,NaN,,NaN
NaN,NaN,NaN,NaN,NaN,"",NaN,NaN,"",NaN,NaN,1,1,30,1,57,99,34,0.05,0.15,0.1,0.05,57,34,99,0.05,0.1,0.15,0,4,0,0,57,57,1494,49,0,0,0,30,1494,49,151,0,,NaN,NaN,NaN,NaN,NaN,NaN,66,1,2020-11-11_17h09.37.730,Pirates_expt3,2020.1.2,Win32,60,NaN,NaN,NaN,NaN,NaN,NaN,NaN,,NaN,NaN,NaN,NaN,NaN,NaN,,NaN,NaN,NaN,NaN,NaN,NaN,"",,NaN,4,0,4,0,1,3,200,0,200,0,1,199,,NaN,200,0,200,0,1,199,space,0.250535,,NaN,,NaN
NaN,NaN,NaN,NaN,NaN,"",NaN,NaN,"",NaN,NaN,NaN,NaN,NaN,NaN,NaN,NaN,NaN,NaN,NaN,NaN,NaN,NaN,NaN,NaN,NaN,NaN,NaN,NaN,NaN,,NaN,NaN,NaN,NaN,NaN,,NaN,NaN,NaN,NaN,NaN,NaN,NaN,,NaN,NaN,NaN,NaN,NaN,NaN,66,1,2020-11-11_17h09.37.730,Pirates_expt3,2020.1.2,Win32,60,NaN,NaN,NaN,NaN,NaN,NaN,NaN,,NaN,NaN,NaN,NaN,NaN,NaN,,NaN,NaN,NaN,NaN,NaN,NaN,"",,NaN,NaN,NaN,NaN,NaN,NaN,NaN,NaN,NaN,NaN,NaN,NaN,NaN,,NaN,1,0,1,0,1,NaN,,NaN,,NaN,,NaN
NaN,NaN,NaN,NaN,NaN,"",NaN,NaN,"",NaN,NaN,1,1,30,1,51,99,34,0.05,0.15,0.1,0.05,51,34,99,0.05,0.1,0.15,2,3,0,0,51,51,1494,49,space,0.19006,0,30,1494,49,151,0,,NaN,NaN,NaN,NaN,NaN,NaN,66,1,2020-11-11_17h09.37.730,Pirates_expt3,2020.1.2,Win32,60,NaN,NaN,NaN,NaN,NaN,NaN,NaN,,NaN,NaN,NaN,NaN,NaN,NaN,,NaN,NaN,NaN,NaN,NaN,NaN,"",,NaN,4,0,4,0,1,3,200,0,200,0,1,199,,NaN,200,0,200,0,1,199,,NaN,,NaN,,NaN
NaN,NaN,NaN,NaN,NaN,"",NaN,NaN,"",NaN,NaN,1,1,30,1,51,99,41,0.05,0.15,0.1,0.05,51,41,99,0.05,0.1,0.15,0,4,0,0,51,51,1545,50,0,0,0,30,1545,50,150,0,,NaN,NaN,NaN,NaN,NaN,NaN,66,1,2020-11-11_17h09.37.730,Pirates_expt3,2020.1.2,Win32,60,NaN,NaN,NaN,NaN,NaN,NaN,NaN,,NaN,NaN,NaN,NaN,NaN,NaN,,NaN,NaN,NaN,NaN,NaN,NaN,"",,NaN,4,0,4,0,1,3,200,0,200,0,1,199,,NaN,200,0,200,0,1,199,space,0.19006,,NaN,,NaN
NaN,NaN,NaN,NaN,NaN,"",NaN,NaN,"",NaN,NaN,NaN,NaN,NaN,NaN,NaN,NaN,NaN,NaN,NaN,NaN,NaN,NaN,NaN,NaN,NaN,NaN,NaN,NaN,NaN,,NaN,NaN,NaN,NaN,NaN,,NaN,NaN,NaN,NaN,NaN,NaN,NaN,,NaN,NaN,NaN,NaN,NaN,NaN,66,1,2020-11-11_17h09.37.730,Pirates_expt3,2020.1.2,Win32,60,NaN,NaN,NaN,NaN,NaN,NaN,NaN,,NaN,NaN,NaN,NaN,NaN,NaN,,NaN,NaN,NaN,NaN,NaN,NaN,"",,NaN,NaN,NaN,NaN,NaN,NaN,NaN,NaN,NaN,NaN,NaN,NaN,NaN,,NaN,2,0,2,0,1,NaN,,NaN,,NaN,,NaN
NaN,NaN,NaN,NaN,NaN,"",NaN,NaN,"",NaN,NaN,1,1,30,1,44,99,41,0.05,0.15,0.1,0.05,44,41,99,0.05,0.1,0.15,2,3,0,0,44,44,1545,50,space,0.142005,0,30,1545,50,150,0,,NaN,NaN,NaN,NaN,NaN,NaN,66,1,2020-11-11_17h09.37.730,Pirates_expt3,2020.1.2,Win32,60,NaN,NaN,NaN,NaN,NaN,NaN,NaN,,NaN,NaN,NaN,NaN,NaN,NaN,,NaN,NaN,NaN,NaN,NaN,NaN,"",,NaN,4,0,4,0,1,3,200,0,200,0,1,199,,NaN,200,0,200,0,1,199,,NaN,,NaN,,NaN
NaN,NaN,NaN,NaN,NaN,"",NaN,NaN,"",NaN,NaN,1,1,31,1,44,99,47,0.05,0.15,0.1,0.05,44,47,99,0.05,0.1,0.15,0,4,0,0,44,44,1590,51,0,0,0,31,1590,51,149,0,,NaN,NaN,NaN,NaN,NaN,NaN,66,1,2020-11-11_17h09.37.730,Pirates_expt3,2020.1.2,Win32,60,NaN,NaN,NaN,NaN,NaN,NaN,NaN,,NaN,NaN,NaN,NaN,NaN,NaN,,NaN,NaN,NaN,NaN,NaN,NaN,"",,NaN,4,0,4,0,1,3,200,0,200,0,1,199,,NaN,200,0,200,0,1,199,space,0.142005,,NaN,,NaN
NaN,NaN,NaN,NaN,NaN,"",NaN,NaN,"",NaN,NaN,NaN,NaN,NaN,NaN,NaN,NaN,NaN,NaN,NaN,NaN,NaN,NaN,NaN,NaN,NaN,NaN,NaN,NaN,NaN,,NaN,NaN,NaN,NaN,NaN,,NaN,NaN,NaN,NaN,NaN,NaN,NaN,,NaN,NaN,NaN,NaN,NaN,NaN,66,1,2020-11-11_17h09.37.730,Pirates_expt3,2020.1.2,Win32,60,NaN,NaN,NaN,NaN,NaN,NaN,NaN,,NaN,NaN,NaN,NaN,NaN,NaN,,NaN,NaN,NaN,NaN,NaN,NaN,"",,NaN,NaN,NaN,NaN,NaN,NaN,NaN,NaN,NaN,NaN,NaN,NaN,NaN,,NaN,3,0,3,0,1,NaN,,NaN,,NaN,,NaN
NaN,NaN,NaN,NaN,NaN,"",NaN,NaN,"",NaN,NaN,1,1,31,1,36,99,47,0.05,0.15,0.1,0.05,36,47,99,0.05,0.1,0.15,2,3,0,0,36,36,1590,51,space,0.14296,0,31,1590,51,149,0,,NaN,NaN,NaN,NaN,NaN,NaN,66,1,2020-11-11_17h09.37.730,Pirates_expt3,2020.1.2,Win32,60,NaN,NaN,NaN,NaN,NaN,NaN,NaN,,NaN,NaN,NaN,NaN,NaN,NaN,,NaN,NaN,NaN,NaN,NaN,NaN,"",,NaN,4,0,4,0,1,3,200,0,200,0,1,199,,NaN,200,0,200,0,1,199,,NaN,,NaN,,NaN
NaN,NaN,NaN,NaN,NaN,"",NaN,NaN,"",NaN,NaN,1,1,31,1,36,99,52,0.05,0.15,0.1,0.05,36,52,99,0.05,0.1,0.15,0,4,0,0,36,36,1626,52,0,0,0,31,1626,52,148,0,,NaN,NaN,NaN,NaN,NaN,NaN,66,1,2020-11-11_17h09.37.730,Pirates_expt3,2020.1.2,Win32,60,NaN,NaN,NaN,NaN,NaN,NaN,NaN,,NaN,NaN,NaN,NaN,NaN,NaN,,NaN,NaN,NaN,NaN,NaN,NaN,"",,NaN,4,0,4,0,1,3,200,0,200,0,1,199,,NaN,200,0,200,0,1,199,space,0.14296,,NaN,,NaN
NaN,NaN,NaN,NaN,NaN,"",NaN,NaN,"",NaN,NaN,NaN,NaN,NaN,NaN,NaN,NaN,NaN,NaN,NaN,NaN,NaN,NaN,NaN,NaN,NaN,NaN,NaN,NaN,NaN,,NaN,NaN,NaN,NaN,NaN,,NaN,NaN,NaN,NaN,NaN,NaN,NaN,,NaN,NaN,NaN,NaN,NaN,NaN,66,1,2020-11-11_17h09.37.730,Pirates_expt3,2020.1.2,Win32,60,NaN,NaN,NaN,NaN,NaN,NaN,NaN,,NaN,NaN,NaN,NaN,NaN,NaN,,NaN,NaN,NaN,NaN,NaN,NaN,"",,NaN,NaN,NaN,NaN,NaN,NaN,NaN,NaN,NaN,NaN,NaN,NaN,NaN,,NaN,4,0,4,0,1,NaN,,NaN,,NaN,,NaN
NaN,NaN,NaN,NaN,NaN,"",NaN,NaN,"",NaN,NaN,1,1,31,1,28,99,52,0.05,0.15,0.1,0.05,28,52,99,0.05,0.1,0.15,2,3,0,0,28,28,1626,52,space,0.078065,0,31,1626,52,148,0,,NaN,NaN,NaN,NaN,NaN,NaN,66,1,2020-11-11_17h09.37.730,Pirates_expt3,2020.1.2,Win32,60,NaN,NaN,NaN,NaN,NaN,NaN,NaN,,NaN,NaN,NaN,NaN,NaN,NaN,,NaN,NaN,NaN,NaN,NaN,NaN,"",,NaN,4,0,4,0,1,3,200,0,200,0,1,199,,NaN,200,0,200,0,1,199,,NaN,,NaN,,NaN
NaN,NaN,NaN,NaN,NaN,"",NaN,NaN,"",NaN,NaN,1,1,31,1,28,99,57,0.05,0.15,0.1,0.05,28,57,99,0.05,0.1,0.15,0,4,0,0,28,28,1654,53,0,0,0,31,1654,53,147,0,,NaN,NaN,NaN,NaN,NaN,NaN,66,1,2020-11-11_17h09.37.730,Pirates_expt3,2020.1.2,Win32,60,NaN,NaN,NaN,NaN,NaN,NaN,NaN,,NaN,NaN,NaN,NaN,NaN,NaN,,NaN,NaN,NaN,NaN,NaN,NaN,"",,NaN,4,0,4,0,1,3,200,0,200,0,1,199,,NaN,200,0,200,0,1,199,space,0.078065,,NaN,,NaN
NaN,NaN,NaN,NaN,NaN,"",NaN,NaN,"",NaN,NaN,NaN,NaN,NaN,NaN,NaN,NaN,NaN,NaN,NaN,NaN,NaN,NaN,NaN,NaN,NaN,NaN,NaN,NaN,NaN,,NaN,NaN,NaN,NaN,NaN,,NaN,NaN,NaN,NaN,NaN,NaN,NaN,,NaN,NaN,NaN,NaN,NaN,NaN,66,1,2020-11-11_17h09.37.730,Pirates_expt3,2020.1.2,Win32,60,NaN,NaN,NaN,NaN,NaN,NaN,NaN,,NaN,NaN,NaN,NaN,NaN,NaN,,NaN,NaN,NaN,NaN,NaN,NaN,"",,NaN,NaN,NaN,NaN,NaN,NaN,NaN,NaN,NaN,NaN,NaN,NaN,NaN,,NaN,5,0,5,0,1,NaN,,NaN,,NaN,,NaN
NaN,NaN,NaN,NaN,NaN,"",NaN,NaN,"",NaN,NaN,1,1,31,1,20,99,57,0.05,0.15,0.1,0.05,20,57,99,0.05,0.1,0.15,2,3,0,0,20,20,1654,53,space,0.2288,0,31,1654,53,147,0,,NaN,NaN,NaN,NaN,NaN,NaN,66,1,2020-11-11_17h09.37.730,Pirates_expt3,2020.1.2,Win32,60,NaN,NaN,NaN,NaN,NaN,NaN,NaN,,NaN,NaN,NaN,NaN,NaN,NaN,,NaN,NaN,NaN,NaN,NaN,NaN,"",,NaN,4,0,4,0,1,3,200,0,200,0,1,199,,NaN,200,0,200,0,1,199,,NaN,,NaN,,NaN
NaN,NaN,NaN,NaN,NaN,"",NaN,NaN,"",NaN,NaN,1,1,31,1,20,99,61,0.05,0.15,0.1,0.05,20,61,99,0.05,0.1,0.15,0,4,0,0,20,20,1675,54,0,0,0,31,1675,54,146,0,,NaN,NaN,NaN,NaN,NaN,NaN,66,1,2020-11-11_17h09.37.730,Pirates_expt3,2020.1.2,Win32,60,NaN,NaN,NaN,NaN,NaN,NaN,NaN,,NaN,NaN,NaN,NaN,NaN,NaN,,NaN,NaN,NaN,NaN,NaN,NaN,"",,NaN,4,0,4,0,1,3,200,0,200,0,1,199,,NaN,200,0,200,0,1,199,space,0.2288,,NaN,,NaN
NaN,NaN,NaN,NaN,NaN,"",NaN,NaN,"",NaN,NaN,NaN,NaN,NaN,NaN,NaN,NaN,NaN,NaN,NaN,NaN,NaN,NaN,NaN,NaN,NaN,NaN,NaN,NaN,NaN,,NaN,NaN,NaN,NaN,NaN,,NaN,NaN,NaN,NaN,NaN,NaN,NaN,,NaN,NaN,NaN,NaN,NaN,NaN,66,1,2020-11-11_17h09.37.730,Pirates_expt3,2020.1.2,Win32,60,NaN,NaN,NaN,NaN,NaN,NaN,NaN,,NaN,NaN,NaN,NaN,NaN,NaN,,NaN,NaN,NaN,NaN,NaN,NaN,"",,NaN,NaN,NaN,NaN,NaN,NaN,NaN,NaN,NaN,NaN,NaN,NaN,NaN,,NaN,6,0,6,0,1,NaN,,NaN,,NaN,,NaN
NaN,NaN,NaN,NaN,NaN,"",NaN,NaN,"",NaN,NaN,1,1,31,1,14,99,61,0.05,0.15,0.1,0.05,14,61,99,0.05,0.1,0.15,2,3,0,0,14,14,1675,54,space,0.001795,0,31,1675,54,146,0,,NaN,NaN,NaN,NaN,NaN,NaN,66,1,2020-11-11_17h09.37.730,Pirates_expt3,2020.1.2,Win32,60,NaN,NaN,NaN,NaN,NaN,NaN,NaN,,NaN,NaN,NaN,NaN,NaN,NaN,,NaN,NaN,NaN,NaN,NaN,NaN,"",,NaN,4,0,4,0,1,3,200,0,200,0,1,199,,NaN,200,0,200,0,1,199,,NaN,,NaN,,NaN
NaN,NaN,NaN,NaN,NaN,"",NaN,NaN,"",NaN,NaN,1,1,30,1,14,99,65,0.05,0.15,0.1,0.05,14,65,99,0.05,0.1,0.15,0,4,0,0,14,14,1689,55,0,0,0,30,1689,55,145,0,,NaN,NaN,NaN,NaN,NaN,NaN,66,1,2020-11-11_17h09.37.730,Pirates_expt3,2020.1.2,Win32,60,NaN,NaN,NaN,NaN,NaN,NaN,NaN,,NaN,NaN,NaN,NaN,NaN,NaN,,NaN,NaN,NaN,NaN,NaN,NaN,"",,NaN,4,0,4,0,1,3,200,0,200,0,1,199,,NaN,200,0,200,0,1,199,space,0.001795,,NaN,,NaN
NaN,NaN,NaN,NaN,NaN,"",NaN,NaN,"",NaN,NaN,NaN,NaN,NaN,NaN,NaN,NaN,NaN,NaN,NaN,NaN,NaN,NaN,NaN,NaN,NaN,NaN,NaN,NaN,NaN,,NaN,NaN,NaN,NaN,NaN,,NaN,NaN,NaN,NaN,NaN,NaN,NaN,,NaN,NaN,NaN,NaN,NaN,NaN,66,1,2020-11-11_17h09.37.730,Pirates_expt3,2020.1.2,Win32,60,NaN,NaN,NaN,NaN,NaN,NaN,NaN,,NaN,NaN,NaN,NaN,NaN,NaN,,NaN,NaN,NaN,NaN,NaN,NaN,"",,NaN,NaN,NaN,NaN,NaN,NaN,NaN,NaN,NaN,NaN,NaN,NaN,NaN,,NaN,7,0,7,0,1,NaN,,NaN,,NaN,,NaN
NaN,NaN,NaN,NaN,NaN,"",NaN,NaN,"",NaN,NaN,1,1,30,1,9,99,65,0.05,0.15,0.1,0.05,9,65,99,0.05,0.1,0.15,2,3,0,0,9,9,1689,55,space,0.331285,0,30,1689,55,145,0,,NaN,NaN,NaN,NaN,NaN,NaN,66,1,2020-11-11_17h09.37.730,Pirates_expt3,2020.1.2,Win32,60,NaN,NaN,NaN,NaN,NaN,NaN,NaN,,NaN,NaN,NaN,NaN,NaN,NaN,,NaN,NaN,NaN,NaN,NaN,NaN,"",,NaN,4,0,4,0,1,3,200,0,200,0,1,199,,NaN,200,0,200,0,1,199,,NaN,,NaN,,NaN
NaN,NaN,NaN,NaN,NaN,"",NaN,NaN,"",NaN,NaN,1,1,30,1,9,99,68,0.05,0.15,0.1,0.05,9,68,99,0.05,0.1,0.15,0,4,0,0,9,9,1699,56,0,0,0,30,1699,56,144,0,,NaN,NaN,NaN,NaN,NaN,NaN,66,1,2020-11-11_17h09.37.730,Pirates_expt3,2020.1.2,Win32,60,NaN,NaN,NaN,NaN,NaN,NaN,NaN,,NaN,NaN,NaN,NaN,NaN,NaN,,NaN,NaN,NaN,NaN,NaN,NaN,"",,NaN,4,0,4,0,1,3,200,0,200,0,1,199,,NaN,200,0,200,0,1,199,space,0.331285,,NaN,,NaN
NaN,NaN,NaN,NaN,NaN,"",NaN,NaN,"",NaN,NaN,NaN,NaN,NaN,NaN,NaN,NaN,NaN,NaN,NaN,NaN,NaN,NaN,NaN,NaN,NaN,NaN,NaN,NaN,NaN,,NaN,NaN,NaN,NaN,NaN,,NaN,NaN,NaN,NaN,NaN,NaN,NaN,,NaN,NaN,NaN,NaN,NaN,NaN,66,1,2020-11-11_17h09.37.730,Pirates_expt3,2020.1.2,Win32,60,NaN,NaN,NaN,NaN,NaN,NaN,NaN,,NaN,NaN,NaN,NaN,NaN,NaN,,NaN,NaN,NaN,NaN,NaN,NaN,"",,NaN,NaN,NaN,NaN,NaN,NaN,NaN,NaN,NaN,NaN,NaN,NaN,NaN,,NaN,8,0,8,0,1,NaN,,NaN,,NaN,,NaN
NaN,NaN,NaN,NaN,NaN,"",NaN,NaN,"",NaN,NaN,1,1,30,1,6,99,68,0.05,0.15,0.1,0.05,6,68,99,0.05,0.1,0.15,3,3,0,0,6,6,1699,56,s,0.01887,9,30,1699,56,144,0,,NaN,NaN,NaN,NaN,NaN,NaN,66,1,2020-11-11_17h09.37.730,Pirates_expt3,2020.1.2,Win32,60,NaN,NaN,NaN,NaN,NaN,NaN,NaN,,NaN,NaN,NaN,NaN,NaN,NaN,,NaN,NaN,NaN,NaN,NaN,NaN,"",,NaN,4,0,4,0,1,3,200,0,200,0,1,199,,NaN,200,0,200,0,1,199,,NaN,,NaN,,NaN
NaN,NaN,NaN,NaN,NaN,"",NaN,NaN,"",NaN,NaN,1,1,29,1,10,99,71,0.05,0.15,0.1,0.05,10,71,99,0.05,0.1,0.15,0,4,0,0,10,6,1699,57,0,0,0,29,1699,57,143,15.939,,NaN,NaN,NaN,NaN,NaN,NaN,66,1,2020-11-11_17h09.37.730,Pirates_expt3,2020.1.2,Win32,60,NaN,NaN,NaN,NaN,NaN,NaN,NaN,,NaN,NaN,NaN,NaN,NaN,NaN,,NaN,NaN,NaN,NaN,NaN,NaN,"",,NaN,4,0,4,0,1,3,200,0,200,0,1,199,,NaN,200,0,200,0,1,199,s,0.01887,,NaN,,NaN
NaN,NaN,NaN,NaN,NaN,"",NaN,NaN,"",NaN,NaN,NaN,NaN,NaN,NaN,NaN,NaN,NaN,NaN,NaN,NaN,NaN,NaN,NaN,NaN,NaN,NaN,NaN,NaN,NaN,,NaN,NaN,NaN,NaN,NaN,,NaN,NaN,NaN,NaN,NaN,NaN,NaN,,NaN,NaN,NaN,NaN,NaN,NaN,66,1,2020-11-11_17h09.37.730,Pirates_expt3,2020.1.2,Win32,60,NaN,NaN,NaN,NaN,NaN,NaN,NaN,,NaN,NaN,NaN,NaN,NaN,NaN,,NaN,NaN,NaN,NaN,NaN,NaN,"",,NaN,NaN,NaN,NaN,NaN,NaN,NaN,3,0,3,0,1,NaN,,NaN,NaN,NaN,NaN,NaN,NaN,NaN,,NaN,,NaN,,NaN
NaN,NaN,NaN,NaN,NaN,"",NaN,NaN,"",NaN,NaN,1,1,29,3,10,99,71,0.05,0.15,0.1,0.1,10,71,99,0.05,0.1,0.15,1,1,k,1.573765,0,0,1699,58,N/A,0,0,29,1699,58,142,0,,NaN,NaN,NaN,NaN,NaN,NaN,66,1,2020-11-11_17h09.37.730,Pirates_expt3,2020.1.2,Win32,60,NaN,NaN,NaN,NaN,NaN,NaN,NaN,,NaN,NaN,NaN,NaN,NaN,NaN,,NaN,NaN,NaN,NaN,NaN,NaN,"",,NaN,4,0,4,0,1,3,200,0,200,0,1,199,,NaN,NaN,NaN,NaN,NaN,NaN,NaN,,NaN,,NaN,,NaN
NaN,NaN,NaN,NaN,NaN,"",NaN,NaN,"",NaN,NaN,1,1,29,3,15,99,74,0.05,0.15,0.1,0.1,15,74,99,0.05,0.1,0.15,0,2,0,0,0,0,1699,58,N/A,0,0,29,1699,58,142,0,,NaN,NaN,NaN,NaN,NaN,NaN,66,1,2020-11-11_17h09.37.730,Pirates_expt3,2020.1.2,Win32,60,NaN,NaN,NaN,NaN,NaN,NaN,NaN,,NaN,NaN,NaN,NaN,NaN,NaN,,NaN,NaN,NaN,NaN,NaN,NaN,"",,NaN,4,0,4,0,1,3,200,0,200,0,1,199,k,1.573765,NaN,NaN,NaN,NaN,NaN,NaN,,NaN,,NaN,,NaN
NaN,NaN,NaN,NaN,NaN,"",NaN,NaN,"",NaN,NaN,1,1,29,3,15,99,74,0.05,0.15,0.1,0.1,15,74,99,0.05,0.1,0.15,2,3,0,0,74,74,1699,58,space,0.498365,0,29,1699,58,142,0,,NaN,NaN,NaN,NaN,NaN,NaN,66,1,2020-11-11_17h09.37.730,Pirates_expt3,2020.1.2,Win32,60,NaN,NaN,NaN,NaN,NaN,NaN,NaN,,NaN,NaN,NaN,NaN,NaN,NaN,,NaN,NaN,NaN,NaN,NaN,NaN,"",,NaN,4,0,4,0,1,3,200,0,200,0,1,199,,NaN,200,0,200,0,1,199,,NaN,,NaN,,NaN
NaN,NaN,NaN,NaN,NaN,"",NaN,NaN,"",NaN,NaN,1,1,30,3,19,99,74,0.05,0.15,0.1,0.1,19,74,99,0.05,0.1,0.15,0,4,0,0,74,74,1774,59,0,0,0,30,1774,59,141,0,,NaN,NaN,NaN,NaN,NaN,NaN,66,1,2020-11-11_17h09.37.730,Pirates_expt3,2020.1.2,Win32,60,NaN,NaN,NaN,NaN,NaN,NaN,NaN,,NaN,NaN,NaN,NaN,NaN,NaN,,NaN,NaN,NaN,NaN,NaN,NaN,"",,NaN,4,0,4,0,1,3,200,0,200,0,1,199,,NaN,200,0,200,0,1,199,space,0.498365,,NaN,,NaN
NaN,NaN,NaN,NaN,NaN,"",NaN,NaN,"",NaN,NaN,NaN,NaN,NaN,NaN,NaN,NaN,NaN,NaN,NaN,NaN,NaN,NaN,NaN,NaN,NaN,NaN,NaN,NaN,NaN,,NaN,NaN,NaN,NaN,NaN,,NaN,NaN,NaN,NaN,NaN,NaN,NaN,,NaN,NaN,NaN,NaN,NaN,NaN,66,1,2020-11-11_17h09.37.730,Pirates_expt3,2020.1.2,Win32,60,NaN,NaN,NaN,NaN,NaN,NaN,NaN,,NaN,NaN,NaN,NaN,NaN,NaN,,NaN,NaN,NaN,NaN,NaN,NaN,"",,NaN,NaN,NaN,NaN,NaN,NaN,NaN,NaN,NaN,NaN,NaN,NaN,NaN,,NaN,0,0,0,0,1,NaN,,NaN,,NaN,,NaN
NaN,NaN,NaN,NaN,NaN,"",NaN,NaN,"",NaN,NaN,1,1,30,3,19,99,70,0.05,0.15,0.1,0.1,19,70,99,0.05,0.1,0.15,2,3,0,0,70,70,1774,59,space,0.06414,0,30,1774,59,141,0,,NaN,NaN,NaN,NaN,NaN,NaN,66,1,2020-11-11_17h09.37.730,Pirates_expt3,2020.1.2,Win32,60,NaN,NaN,NaN,NaN,NaN,NaN,NaN,,NaN,NaN,NaN,NaN,NaN,NaN,,NaN,NaN,NaN,NaN,NaN,NaN,"",,NaN,4,0,4,0,1,3,200,0,200,0,1,199,,NaN,200,0,200,0,1,199,,NaN,,NaN,,NaN
NaN,NaN,NaN,NaN,NaN,"",NaN,NaN,"",NaN,NaN,1,1,30,3,23,99,70,0.05,0.15,0.1,0.1,23,70,99,0.05,0.1,0.15,0,4,0,0,70,70,1845,60,0,0,0,30,1845,60,140,0,,NaN,NaN,NaN,NaN,NaN,NaN,66,1,2020-11-11_17h09.37.730,Pirates_expt3,2020.1.2,Win32,60,NaN,NaN,NaN,NaN,NaN,NaN,NaN,,NaN,NaN,NaN,NaN,NaN,NaN,,NaN,NaN,NaN,NaN,NaN,NaN,"",,NaN,4,0,4,0,1,3,200,0,200,0,1,199,,NaN,200,0,200,0,1,199,space,0.06414,,NaN,,NaN
NaN,NaN,NaN,NaN,NaN,"",NaN,NaN,"",NaN,NaN,NaN,NaN,NaN,NaN,NaN,NaN,NaN,NaN,NaN,NaN,NaN,NaN,NaN,NaN,NaN,NaN,NaN,NaN,NaN,,NaN,NaN,NaN,NaN,NaN,,NaN,NaN,NaN,NaN,NaN,NaN,NaN,,NaN,NaN,NaN,NaN,NaN,NaN,66,1,2020-11-11_17h09.37.730,Pirates_expt3,2020.1.2,Win32,60,NaN,NaN,NaN,NaN,NaN,NaN,NaN,,NaN,NaN,NaN,NaN,NaN,NaN,,NaN,NaN,NaN,NaN,NaN,NaN,"",,NaN,NaN,NaN,NaN,NaN,NaN,NaN,NaN,NaN,NaN,NaN,NaN,NaN,,NaN,1,0,1,0,1,NaN,,NaN,,NaN,,NaN
NaN,NaN,NaN,NaN,NaN,"",NaN,NaN,"",NaN,NaN,1,1,30,3,23,99,64,0.05,0.15,0.1,0.1,23,64,99,0.05,0.1,0.15,2,3,0,0,64,64,1845,60,space,0.044825,0,30,1845,60,140,0,,NaN,NaN,NaN,NaN,NaN,NaN,66,1,2020-11-11_17h09.37.730,Pirates_expt3,2020.1.2,Win32,60,NaN,NaN,NaN,NaN,NaN,NaN,NaN,,NaN,NaN,NaN,NaN,NaN,NaN,,NaN,NaN,NaN,NaN,NaN,NaN,"",,NaN,4,0,4,0,1,3,200,0,200,0,1,199,,NaN,200,0,200,0,1,199,,NaN,,NaN,,NaN
NaN,NaN,NaN,NaN,NaN,"",NaN,NaN,"",NaN,NaN,1,1,31,3,27,99,64,0.05,0.15,0.1,0.1,27,64,99,0.05,0.1,0.15,0,4,0,0,64,64,1909,61,0,0,0,31,1909,61,139,0,,NaN,NaN,NaN,NaN,NaN,NaN,66,1,2020-11-11_17h09.37.730,Pirates_expt3,2020.1.2,Win32,60,NaN,NaN,NaN,NaN,NaN,NaN,NaN,,NaN,NaN,NaN,NaN,NaN,NaN,,NaN,NaN,NaN,NaN,NaN,NaN,"",,NaN,4,0,4,0,1,3,200,0,200,0,1,199,,NaN,200,0,200,0,1,199,space,0.044825,,NaN,,NaN
NaN,NaN,NaN,NaN,NaN,"",NaN,NaN,"",NaN,NaN,NaN,NaN,NaN,NaN,NaN,NaN,NaN,NaN,NaN,NaN,NaN,NaN,NaN,NaN,NaN,NaN,NaN,NaN,NaN,,NaN,NaN,NaN,NaN,NaN,,NaN,NaN,NaN,NaN,NaN,NaN,NaN,,NaN,NaN,NaN,NaN,NaN,NaN,66,1,2020-11-11_17h09.37.730,Pirates_expt3,2020.1.2,Win32,60,NaN,NaN,NaN,NaN,NaN,NaN,NaN,,NaN,NaN,NaN,NaN,NaN,NaN,,NaN,NaN,NaN,NaN,NaN,NaN,"",,NaN,NaN,NaN,NaN,NaN,NaN,NaN,NaN,NaN,NaN,NaN,NaN,NaN,,NaN,2,0,2,0,1,NaN,,NaN,,NaN,,NaN
NaN,NaN,NaN,NaN,NaN,"",NaN,NaN,"",NaN,NaN,1,1,31,3,27,99,54,0.05,0.15,0.1,0.1,27,54,99,0.05,0.1,0.15,2,3,0,0,54,54,1909,61,space,0.208265,0,31,1909,61,139,0,,NaN,NaN,NaN,NaN,NaN,NaN,66,1,2020-11-11_17h09.37.730,Pirates_expt3,2020.1.2,Win32,60,NaN,NaN,NaN,NaN,NaN,NaN,NaN,,NaN,NaN,NaN,NaN,NaN,NaN,,NaN,NaN,NaN,NaN,NaN,NaN,"",,NaN,4,0,4,0,1,3,200,0,200,0,1,199,,NaN,200,0,200,0,1,199,,NaN,,NaN,,NaN
NaN,NaN,NaN,NaN,NaN,"",NaN,NaN,"",NaN,NaN,1,1,31,3,30,99,54,0.05,0.15,0.1,0.1,30,54,99,0.05,0.1,0.15,0,4,0,0,54,54,1964,62,0,0,0,31,1964,62,138,0,,NaN,NaN,NaN,NaN,NaN,NaN,66,1,2020-11-11_17h09.37.730,Pirates_expt3,2020.1.2,Win32,60,NaN,NaN,NaN,NaN,NaN,NaN,NaN,,NaN,NaN,NaN,NaN,NaN,NaN,,NaN,NaN,NaN,NaN,NaN,NaN,"",,NaN,4,0,4,0,1,3,200,0,200,0,1,199,,NaN,200,0,200,0,1,199,space,0.208265,,NaN,,NaN
NaN,NaN,NaN,NaN,NaN,"",NaN,NaN,"",NaN,NaN,NaN,NaN,NaN,NaN,NaN,NaN,NaN,NaN,NaN,NaN,NaN,NaN,NaN,NaN,NaN,NaN,NaN,NaN,NaN,,NaN,NaN,NaN,NaN,NaN,,NaN,NaN,NaN,NaN,NaN,NaN,NaN,,NaN,NaN,NaN,NaN,NaN,NaN,66,1,2020-11-11_17h09.37.730,Pirates_expt3,2020.1.2,Win32,60,NaN,NaN,NaN,NaN,NaN,NaN,NaN,,NaN,NaN,NaN,NaN,NaN,NaN,,NaN,NaN,NaN,NaN,NaN,NaN,"",,NaN,NaN,NaN,NaN,NaN,NaN,NaN,NaN,NaN,NaN,NaN,NaN,NaN,,NaN,3,0,3,0,1,NaN,,NaN,,NaN,,NaN
NaN,NaN,NaN,NaN,NaN,"",NaN,NaN,"",NaN,NaN,1,1,31,3,30,99,44,0.05,0.15,0.1,0.1,30,44,99,0.05,0.1,0.15,2,3,0,0,44,44,1964,62,space,0.2664,0,31,1964,62,138,0,,NaN,NaN,NaN,NaN,NaN,NaN,66,1,2020-11-11_17h09.37.730,Pirates_expt3,2020.1.2,Win32,60,NaN,NaN,NaN,NaN,NaN,NaN,NaN,,NaN,NaN,NaN,NaN,NaN,NaN,,NaN,NaN,NaN,NaN,NaN,NaN,"",,NaN,4,0,4,0,1,3,200,0,200,0,1,199,,NaN,200,0,200,0,1,199,,NaN,,NaN,,NaN
NaN,NaN,NaN,NaN,NaN,"",NaN,NaN,"",NaN,NaN,1,1,31,3,34,99,44,0.05,0.15,0.1,0.1,34,44,99,0.05,0.1,0.15,0,4,0,0,44,44,2008,63,0,0,0,31,2008,63,137,0,,NaN,NaN,NaN,NaN,NaN,NaN,66,1,2020-11-11_17h09.37.730,Pirates_expt3,2020.1.2,Win32,60,NaN,NaN,NaN,NaN,NaN,NaN,NaN,,NaN,NaN,NaN,NaN,NaN,NaN,,NaN,NaN,NaN,NaN,NaN,NaN,"",,NaN,4,0,4,0,1,3,200,0,200,0,1,199,,NaN,200,0,200,0,1,199,space,0.2664,,NaN,,NaN
NaN,NaN,NaN,NaN,NaN,"",NaN,NaN,"",NaN,NaN,NaN,NaN,NaN,NaN,NaN,NaN,NaN,NaN,NaN,NaN,NaN,NaN,NaN,NaN,NaN,NaN,NaN,NaN,NaN,,NaN,NaN,NaN,NaN,NaN,,NaN,NaN,NaN,NaN,NaN,NaN,NaN,,NaN,NaN,NaN,NaN,NaN,NaN,66,1,2020-11-11_17h09.37.730,Pirates_expt3,2020.1.2,Win32,60,NaN,NaN,NaN,NaN,NaN,NaN,NaN,,NaN,NaN,NaN,NaN,NaN,NaN,,NaN,NaN,NaN,NaN,NaN,NaN,"",,NaN,NaN,NaN,NaN,NaN,NaN,NaN,NaN,NaN,NaN,NaN,NaN,NaN,,NaN,4,0,4,0,1,NaN,,NaN,,NaN,,NaN
NaN,NaN,NaN,NaN,NaN,"",NaN,NaN,"",NaN,NaN,1,1,31,3,34,99,34,0.05,0.15,0.1,0.1,34,34,99,0.05,0.1,0.15,2,3,0,0,34,34,2008,63,space,0.2791,0,31,2008,63,137,0,,NaN,NaN,NaN,NaN,NaN,NaN,66,1,2020-11-11_17h09.37.730,Pirates_expt3,2020.1.2,Win32,60,NaN,NaN,NaN,NaN,NaN,NaN,NaN,,NaN,NaN,NaN,NaN,NaN,NaN,,NaN,NaN,NaN,NaN,NaN,NaN,"",,NaN,4,0,4,0,1,3,200,0,200,0,1,199,,NaN,200,0,200,0,1,199,,NaN,,NaN,,NaN
NaN,NaN,NaN,NaN,NaN,"",NaN,NaN,"",NaN,NaN,1,1,31,3,37,99,34,0.05,0.15,0.1,0.1,37,34,99,0.05,0.1,0.15,0,4,0,0,34,34,2043,64,0,0,0,31,2043,64,136,0,,NaN,NaN,NaN,NaN,NaN,NaN,66,1,2020-11-11_17h09.37.730,Pirates_expt3,2020.1.2,Win32,60,NaN,NaN,NaN,NaN,NaN,NaN,NaN,,NaN,NaN,NaN,NaN,NaN,NaN,,NaN,NaN,NaN,NaN,NaN,NaN,"",,NaN,4,0,4,0,1,3,200,0,200,0,1,199,,NaN,200,0,200,0,1,199,space,0.2791,,NaN,,NaN
NaN,NaN,NaN,NaN,NaN,"",NaN,NaN,"",NaN,NaN,NaN,NaN,NaN,NaN,NaN,NaN,NaN,NaN,NaN,NaN,NaN,NaN,NaN,NaN,NaN,NaN,NaN,NaN,NaN,,NaN,NaN,NaN,NaN,NaN,,NaN,NaN,NaN,NaN,NaN,NaN,NaN,,NaN,NaN,NaN,NaN,NaN,NaN,66,1,2020-11-11_17h09.37.730,Pirates_expt3,2020.1.2,Win32,60,NaN,NaN,NaN,NaN,NaN,NaN,NaN,,NaN,NaN,NaN,NaN,NaN,NaN,,NaN,NaN,NaN,NaN,NaN,NaN,"",,NaN,NaN,NaN,NaN,NaN,NaN,NaN,NaN,NaN,NaN,NaN,NaN,NaN,,NaN,5,0,5,0,1,NaN,,NaN,,NaN,,NaN
NaN,NaN,NaN,NaN,NaN,"",NaN,NaN,"",NaN,NaN,1,1,31,3,37,99,25,0.05,0.15,0.1,0.1,37,25,99,0.05,0.1,0.15,2,3,0,0,25,25,2043,64,space,0.072645,0,31,2043,64,136,0,,NaN,NaN,NaN,NaN,NaN,NaN,66,1,2020-11-11_17h09.37.730,Pirates_expt3,2020.1.2,Win32,60,NaN,NaN,NaN,NaN,NaN,NaN,NaN,,NaN,NaN,NaN,NaN,NaN,NaN,,NaN,NaN,NaN,NaN,NaN,NaN,"",,NaN,4,0,4,0,1,3,200,0,200,0,1,199,,NaN,200,0,200,0,1,199,,NaN,,NaN,,NaN
NaN,NaN,NaN,NaN,NaN,"",NaN,NaN,"",NaN,NaN,1,1,31,3,40,99,25,0.05,0.15,0.1,0.1,40,25,99,0.05,0.1,0.15,0,4,0,0,25,25,2068,65,0,0,0,31,2068,65,135,0,,NaN,NaN,NaN,NaN,NaN,NaN,66,1,2020-11-11_17h09.37.730,Pirates_expt3,2020.1.2,Win32,60,NaN,NaN,NaN,NaN,NaN,NaN,NaN,,NaN,NaN,NaN,NaN,NaN,NaN,,NaN,NaN,NaN,NaN,NaN,NaN,"",,NaN,4,0,4,0,1,3,200,0,200,0,1,199,,NaN,200,0,200,0,1,199,space,0.072645,,NaN,,NaN
NaN,NaN,NaN,NaN,NaN,"",NaN,NaN,"",NaN,NaN,NaN,NaN,NaN,NaN,NaN,NaN,NaN,NaN,NaN,NaN,NaN,NaN,NaN,NaN,NaN,NaN,NaN,NaN,NaN,,NaN,NaN,NaN,NaN,NaN,,NaN,NaN,NaN,NaN,NaN,NaN,NaN,,NaN,NaN,NaN,NaN,NaN,NaN,66,1,2020-11-11_17h09.37.730,Pirates_expt3,2020.1.2,Win32,60,NaN,NaN,NaN,NaN,NaN,NaN,NaN,,NaN,NaN,NaN,NaN,NaN,NaN,,NaN,NaN,NaN,NaN,NaN,NaN,"",,NaN,NaN,NaN,NaN,NaN,NaN,NaN,NaN,NaN,NaN,NaN,NaN,NaN,,NaN,6,0,6,0,1,NaN,,NaN,,NaN,,NaN
NaN,NaN,NaN,NaN,NaN,"",NaN,NaN,"",NaN,NaN,1,1,31,3,40,99,17,0.05,0.15,0.1,0.1,40,17,99,0.05,0.1,0.15,2,3,0,0,17,17,2068,65,space,0.268755,0,31,2068,65,135,0,,NaN,NaN,NaN,NaN,NaN,NaN,66,1,2020-11-11_17h09.37.730,Pirates_expt3,2020.1.2,Win32,60,NaN,NaN,NaN,NaN,NaN,NaN,NaN,,NaN,NaN,NaN,NaN,NaN,NaN,,NaN,NaN,NaN,NaN,NaN,NaN,"",,NaN,4,0,4,0,1,3,200,0,200,0,1,199,,NaN,200,0,200,0,1,199,,NaN,,NaN,,NaN
NaN,NaN,NaN,NaN,NaN,"",NaN,NaN,"",NaN,NaN,1,1,31,3,43,99,17,0.05,0.15,0.1,0.1,43,17,99,0.05,0.1,0.15,0,4,0,0,17,17,2086,66,0,0,0,31,2086,66,134,0,,NaN,NaN,NaN,NaN,NaN,NaN,66,1,2020-11-11_17h09.37.730,Pirates_expt3,2020.1.2,Win32,60,NaN,NaN,NaN,NaN,NaN,NaN,NaN,,NaN,NaN,NaN,NaN,NaN,NaN,,NaN,NaN,NaN,NaN,NaN,NaN,"",,NaN,4,0,4,0,1,3,200,0,200,0,1,199,,NaN,200,0,200,0,1,199,space,0.268755,,NaN,,NaN
NaN,NaN,NaN,NaN,NaN,"",NaN,NaN,"",NaN,NaN,NaN,NaN,NaN,NaN,NaN,NaN,NaN,NaN,NaN,NaN,NaN,NaN,NaN,NaN,NaN,NaN,NaN,NaN,NaN,,NaN,NaN,NaN,NaN,NaN,,NaN,NaN,NaN,NaN,NaN,NaN,NaN,,NaN,NaN,NaN,NaN,NaN,NaN,66,1,2020-11-11_17h09.37.730,Pirates_expt3,2020.1.2,Win32,60,NaN,NaN,NaN,NaN,NaN,NaN,NaN,,NaN,NaN,NaN,NaN,NaN,NaN,,NaN,NaN,NaN,NaN,NaN,NaN,"",,NaN,NaN,NaN,NaN,NaN,NaN,NaN,NaN,NaN,NaN,NaN,NaN,NaN,,NaN,7,0,7,0,1,NaN,,NaN,,NaN,,NaN
NaN,NaN,NaN,NaN,NaN,"",NaN,NaN,"",NaN,NaN,1,1,31,3,43,99,11,0.05,0.15,0.1,0.1,43,11,99,0.05,0.1,0.15,2,3,0,0,11,11,2086,66,space,0.02839,0,31,2086,66,134,0,,NaN,NaN,NaN,NaN,NaN,NaN,66,1,2020-11-11_17h09.37.730,Pirates_expt3,2020.1.2,Win32,60,NaN,NaN,NaN,NaN,NaN,NaN,NaN,,NaN,NaN,NaN,NaN,NaN,NaN,,NaN,NaN,NaN,NaN,NaN,NaN,"",,NaN,4,0,4,0,1,3,200,0,200,0,1,199,,NaN,200,0,200,0,1,199,,NaN,,NaN,,NaN
NaN,NaN,NaN,NaN,NaN,"",NaN,NaN,"",NaN,NaN,1,1,31,3,46,99,11,0.05,0.15,0.1,0.1,46,11,99,0.05,0.1,0.15,0,4,0,0,11,11,2098,67,0,0,0,31,2098,67,133,0,,NaN,NaN,NaN,NaN,NaN,NaN,66,1,2020-11-11_17h09.37.730,Pirates_expt3,2020.1.2,Win32,60,NaN,NaN,NaN,NaN,NaN,NaN,NaN,,NaN,NaN,NaN,NaN,NaN,NaN,,NaN,NaN,NaN,NaN,NaN,NaN,"",,NaN,4,0,4,0,1,3,200,0,200,0,1,199,,NaN,200,0,200,0,1,199,space,0.02839,,NaN,,NaN
NaN,NaN,NaN,NaN,NaN,"",NaN,NaN,"",NaN,NaN,NaN,NaN,NaN,NaN,NaN,NaN,NaN,NaN,NaN,NaN,NaN,NaN,NaN,NaN,NaN,NaN,NaN,NaN,NaN,,NaN,NaN,NaN,NaN,NaN,,NaN,NaN,NaN,NaN,NaN,NaN,NaN,,NaN,NaN,NaN,NaN,NaN,NaN,66,1,2020-11-11_17h09.37.730,Pirates_expt3,2020.1.2,Win32,60,NaN,NaN,NaN,NaN,NaN,NaN,NaN,,NaN,NaN,NaN,NaN,NaN,NaN,,NaN,NaN,NaN,NaN,NaN,NaN,"",,NaN,NaN,NaN,NaN,NaN,NaN,NaN,NaN,NaN,NaN,NaN,NaN,NaN,,NaN,8,0,8,0,1,NaN,,NaN,,NaN,,NaN
NaN,NaN,NaN,NaN,NaN,"",NaN,NaN,"",NaN,NaN,1,1,31,3,46,99,7,0.05,0.15,0.1,0.1,46,7,99,0.05,0.1,0.15,3,3,0,0,7,7,2098,67,s,1.70992,9,31,2098,67,133,0,,NaN,NaN,NaN,NaN,NaN,NaN,66,1,2020-11-11_17h09.37.730,Pirates_expt3,2020.1.2,Win32,60,NaN,NaN,NaN,NaN,NaN,NaN,NaN,,NaN,NaN,NaN,NaN,NaN,NaN,,NaN,NaN,NaN,NaN,NaN,NaN,"",,NaN,4,0,4,0,1,3,200,0,200,0,1,199,,NaN,200,0,200,0,1,199,,NaN,,NaN,,NaN
NaN,NaN,NaN,NaN,NaN,"",NaN,NaN,"",NaN,NaN,1,1,30,3,49,99,16,0.05,0.15,0.1,0.1,49,16,99,0.05,0.1,0.15,0,4,0,0,16,7,2098,68,0,0,0,30,2098,68,132,17.434,,NaN,NaN,NaN,NaN,NaN,NaN,66,1,2020-11-11_17h09.37.730,Pirates_expt3,2020.1.2,Win32,60,NaN,NaN,NaN,NaN,NaN,NaN,NaN,,NaN,NaN,NaN,NaN,NaN,NaN,,NaN,NaN,NaN,NaN,NaN,NaN,"",,NaN,4,0,4,0,1,3,200,0,200,0,1,199,,NaN,200,0,200,0,1,199,s,1.70992,,NaN,,NaN
NaN,NaN,NaN,NaN,NaN,"",NaN,NaN,"",NaN,NaN,NaN,NaN,NaN,NaN,NaN,NaN,NaN,NaN,NaN,NaN,NaN,NaN,NaN,NaN,NaN,NaN,NaN,NaN,NaN,,NaN,NaN,NaN,NaN,NaN,,NaN,NaN,NaN,NaN,NaN,NaN,NaN,,NaN,NaN,NaN,NaN,NaN,NaN,66,1,2020-11-11_17h09.37.730,Pirates_expt3,2020.1.2,Win32,60,NaN,NaN,NaN,NaN,NaN,NaN,NaN,,NaN,NaN,NaN,NaN,NaN,NaN,,NaN,NaN,NaN,NaN,NaN,NaN,"",,NaN,NaN,NaN,NaN,NaN,NaN,NaN,4,0,4,0,1,NaN,,NaN,NaN,NaN,NaN,NaN,NaN,NaN,,NaN,,NaN,,NaN
NaN,NaN,NaN,NaN,NaN,"",NaN,NaN,"",NaN,NaN,1,1,30,1,49,99,16,0.05,0.15,0.1,0.05,49,16,99,0.05,0.1,0.15,1,1,f,1.95406,0,0,2098,69,N/A,0,0,30,2098,69,131,0,,NaN,NaN,NaN,NaN,NaN,NaN,66,1,2020-11-11_17h09.37.730,Pirates_expt3,2020.1.2,Win32,60,NaN,NaN,NaN,NaN,NaN,NaN,NaN,,NaN,NaN,NaN,NaN,NaN,NaN,,NaN,NaN,NaN,NaN,NaN,NaN,"",,NaN,4,0,4,0,1,3,200,0,200,0,1,199,,NaN,NaN,NaN,NaN,NaN,NaN,NaN,,NaN,,NaN,,NaN
NaN,NaN,NaN,NaN,NaN,"",NaN,NaN,"",NaN,NaN,1,1,30,1,51,99,25,0.05,0.15,0.1,0.05,51,25,99,0.05,0.1,0.15,0,2,0,0,0,0,2098,69,N/A,0,0,30,2098,69,131,0,,NaN,NaN,NaN,NaN,NaN,NaN,66,1,2020-11-11_17h09.37.730,Pirates_expt3,2020.1.2,Win32,60,NaN,NaN,NaN,NaN,NaN,NaN,NaN,,NaN,NaN,NaN,NaN,NaN,NaN,,NaN,NaN,NaN,NaN,NaN,NaN,"",,NaN,4,0,4,0,1,3,200,0,200,0,1,199,f,1.95406,NaN,NaN,NaN,NaN,NaN,NaN,,NaN,,NaN,,NaN
NaN,NaN,NaN,NaN,NaN,"",NaN,NaN,"",NaN,NaN,1,1,30,1,51,99,25,0.05,0.15,0.1,0.05,51,25,99,0.05,0.1,0.15,2,3,0,0,51,51,2098,69,space,0.51208,0,30,2098,69,131,0,,NaN,NaN,NaN,NaN,NaN,NaN,66,1,2020-11-11_17h09.37.730,Pirates_expt3,2020.1.2,Win32,60,NaN,NaN,NaN,NaN,NaN,NaN,NaN,,NaN,NaN,NaN,NaN,NaN,NaN,,NaN,NaN,NaN,NaN,NaN,NaN,"",,NaN,4,0,4,0,1,3,200,0,200,0,1,199,,NaN,200,0,200,0,1,199,,NaN,,NaN,,NaN
NaN,NaN,NaN,NaN,NaN,"",NaN,NaN,"",NaN,NaN,1,1,30,1,51,99,32,0.05,0.15,0.1,0.05,51,32,99,0.05,0.1,0.15,0,4,0,0,51,51,2150,70,0,0,0,30,2150,70,130,0,,NaN,NaN,NaN,NaN,NaN,NaN,66,1,2020-11-11_17h09.37.730,Pirates_expt3,2020.1.2,Win32,60,NaN,NaN,NaN,NaN,NaN,NaN,NaN,,NaN,NaN,NaN,NaN,NaN,NaN,,NaN,NaN,NaN,NaN,NaN,NaN,"",,NaN,4,0,4,0,1,3,200,0,200,0,1,199,,NaN,200,0,200,0,1,199,space,0.51208,,NaN,,NaN
NaN,NaN,NaN,NaN,NaN,"",NaN,NaN,"",NaN,NaN,NaN,NaN,NaN,NaN,NaN,NaN,NaN,NaN,NaN,NaN,NaN,NaN,NaN,NaN,NaN,NaN,NaN,NaN,NaN,,NaN,NaN,NaN,NaN,NaN,,NaN,NaN,NaN,NaN,NaN,NaN,NaN,,NaN,NaN,NaN,NaN,NaN,NaN,66,1,2020-11-11_17h09.37.730,Pirates_expt3,2020.1.2,Win32,60,NaN,NaN,NaN,NaN,NaN,NaN,NaN,,NaN,NaN,NaN,NaN,NaN,NaN,,NaN,NaN,NaN,NaN,NaN,NaN,"",,NaN,NaN,NaN,NaN,NaN,NaN,NaN,NaN,NaN,NaN,NaN,NaN,NaN,,NaN,0,0,0,0,1,NaN,,NaN,,NaN,,NaN
NaN,NaN,NaN,NaN,NaN,"",NaN,NaN,"",NaN,NaN,1,1,30,1,49,99,32,0.05,0.15,0.1,0.05,49,32,99,0.05,0.1,0.15,2,3,0,0,49,49,2150,70,space,0.060095,0,30,2150,70,130,0,,NaN,NaN,NaN,NaN,NaN,NaN,66,1,2020-11-11_17h09.37.730,Pirates_expt3,2020.1.2,Win32,60,NaN,NaN,NaN,NaN,NaN,NaN,NaN,,NaN,NaN,NaN,NaN,NaN,NaN,,NaN,NaN,NaN,NaN,NaN,NaN,"",,NaN,4,0,4,0,1,3,200,0,200,0,1,199,,NaN,200,0,200,0,1,199,,NaN,,NaN,,NaN
NaN,NaN,NaN,NaN,NaN,"",NaN,NaN,"",NaN,NaN,1,1,30,1,49,99,39,0.05,0.15,0.1,0.05,49,39,99,0.05,0.1,0.15,0,4,0,0,49,49,2199,71,0,0,0,30,2199,71,129,0,,NaN,NaN,NaN,NaN,NaN,NaN,66,1,2020-11-11_17h09.37.730,Pirates_expt3,2020.1.2,Win32,60,NaN,NaN,NaN,NaN,NaN,NaN,NaN,,NaN,NaN,NaN,NaN,NaN,NaN,,NaN,NaN,NaN,NaN,NaN,NaN,"",,NaN,4,0,4,0,1,3,200,0,200,0,1,199,,NaN,200,0,200,0,1,199,space,0.060095,,NaN,,NaN
NaN,NaN,NaN,NaN,NaN,"",NaN,NaN,"",NaN,NaN,NaN,NaN,NaN,NaN,NaN,NaN,NaN,NaN,NaN,NaN,NaN,NaN,NaN,NaN,NaN,NaN,NaN,NaN,NaN,,NaN,NaN,NaN,NaN,NaN,,NaN,NaN,NaN,NaN,NaN,NaN,NaN,,NaN,NaN,NaN,NaN,NaN,NaN,66,1,2020-11-11_17h09.37.730,Pirates_expt3,2020.1.2,Win32,60,NaN,NaN,NaN,NaN,NaN,NaN,NaN,,NaN,NaN,NaN,NaN,NaN,NaN,,NaN,NaN,NaN,NaN,NaN,NaN,"",,NaN,NaN,NaN,NaN,NaN,NaN,NaN,NaN,NaN,NaN,NaN,NaN,NaN,,NaN,1,0,1,0,1,NaN,,NaN,,NaN,,NaN
NaN,NaN,NaN,NaN,NaN,"",NaN,NaN,"",NaN,NaN,1,1,30,1,44,99,39,0.05,0.15,0.1,0.05,44,39,99,0.05,0.1,0.15,2,3,0,0,44,44,2199,71,space,0.097455,0,30,2199,71,129,0,,NaN,NaN,NaN,NaN,NaN,NaN,66,1,2020-11-11_17h09.37.730,Pirates_expt3,2020.1.2,Win32,60,NaN,NaN,NaN,NaN,NaN,NaN,NaN,,NaN,NaN,NaN,NaN,NaN,NaN,,NaN,NaN,NaN,NaN,NaN,NaN,"",,NaN,4,0,4,0,1,3,200,0,200,0,1,199,,NaN,200,0,200,0,1,199,,NaN,,NaN,,NaN
NaN,NaN,NaN,NaN,NaN,"",NaN,NaN,"",NaN,NaN,1,1,31,1,44,99,45,0.05,0.15,0.1,0.05,44,45,99,0.05,0.1,0.15,0,4,0,0,44,44,2243,72,0,0,0,31,2243,72,128,0,,NaN,NaN,NaN,NaN,NaN,NaN,66,1,2020-11-11_17h09.37.730,Pirates_expt3,2020.1.2,Win32,60,NaN,NaN,NaN,NaN,NaN,NaN,NaN,,NaN,NaN,NaN,NaN,NaN,NaN,,NaN,NaN,NaN,NaN,NaN,NaN,"",,NaN,4,0,4,0,1,3,200,0,200,0,1,199,,NaN,200,0,200,0,1,199,space,0.097455,,NaN,,NaN
NaN,NaN,NaN,NaN,NaN,"",NaN,NaN,"",NaN,NaN,NaN,NaN,NaN,NaN,NaN,NaN,NaN,NaN,NaN,NaN,NaN,NaN,NaN,NaN,NaN,NaN,NaN,NaN,NaN,,NaN,NaN,NaN,NaN,NaN,,NaN,NaN,NaN,NaN,NaN,NaN,NaN,,NaN,NaN,NaN,NaN,NaN,NaN,66,1,2020-11-11_17h09.37.730,Pirates_expt3,2020.1.2,Win32,60,NaN,NaN,NaN,NaN,NaN,NaN,NaN,,NaN,NaN,NaN,NaN,NaN,NaN,,NaN,NaN,NaN,NaN,NaN,NaN,"",,NaN,NaN,NaN,NaN,NaN,NaN,NaN,NaN,NaN,NaN,NaN,NaN,NaN,,NaN,2,0,2,0,1,NaN,,NaN,,NaN,,NaN
NaN,NaN,NaN,NaN,NaN,"",NaN,NaN,"",NaN,NaN,1,1,31,1,38,99,45,0.05,0.15,0.1,0.05,38,45,99,0.05,0.1,0.15,2,3,0,0,38,38,2243,72,space,0.23115,0,31,2243,72,128,0,,NaN,NaN,NaN,NaN,NaN,NaN,66,1,2020-11-11_17h09.37.730,Pirates_expt3,2020.1.2,Win32,60,NaN,NaN,NaN,NaN,NaN,NaN,NaN,,NaN,NaN,NaN,NaN,NaN,NaN,,NaN,NaN,NaN,NaN,NaN,NaN,"",,NaN,4,0,4,0,1,3,200,0,200,0,1,199,,NaN,200,0,200,0,1,199,,NaN,,NaN,,NaN
NaN,NaN,NaN,NaN,NaN,"",NaN,NaN,"",NaN,NaN,1,1,31,1,38,99,50,0.05,0.15,0.1,0.05,38,50,99,0.05,0.1,0.15,0,4,0,0,38,38,2281,73,0,0,0,31,2281,73,127,0,,NaN,NaN,NaN,NaN,NaN,NaN,66,1,2020-11-11_17h09.37.730,Pirates_expt3,2020.1.2,Win32,60,NaN,NaN,NaN,NaN,NaN,NaN,NaN,,NaN,NaN,NaN,NaN,NaN,NaN,,NaN,NaN,NaN,NaN,NaN,NaN,"",,NaN,4,0,4,0,1,3,200,0,200,0,1,199,,NaN,200,0,200,0,1,199,space,0.23115,,NaN,,NaN
NaN,NaN,NaN,NaN,NaN,"",NaN,NaN,"",NaN,NaN,NaN,NaN,NaN,NaN,NaN,NaN,NaN,NaN,NaN,NaN,NaN,NaN,NaN,NaN,NaN,NaN,NaN,NaN,NaN,,NaN,NaN,NaN,NaN,NaN,,NaN,NaN,NaN,NaN,NaN,NaN,NaN,,NaN,NaN,NaN,NaN,NaN,NaN,66,1,2020-11-11_17h09.37.730,Pirates_expt3,2020.1.2,Win32,60,NaN,NaN,NaN,NaN,NaN,NaN,NaN,,NaN,NaN,NaN,NaN,NaN,NaN,,NaN,NaN,NaN,NaN,NaN,NaN,"",,NaN,NaN,NaN,NaN,NaN,NaN,NaN,NaN,NaN,NaN,NaN,NaN,NaN,,NaN,3,0,3,0,1,NaN,,NaN,,NaN,,NaN
NaN,NaN,NaN,NaN,NaN,"",NaN,NaN,"",NaN,NaN,1,1,31,1,30,99,50,0.05,0.15,0.1,0.05,30,50,99,0.05,0.1,0.15,2,3,0,0,30,30,2281,73,space,0.226395,0,31,2281,73,127,0,,NaN,NaN,NaN,NaN,NaN,NaN,66,1,2020-11-11_17h09.37.730,Pirates_expt3,2020.1.2,Win32,60,NaN,NaN,NaN,NaN,NaN,NaN,NaN,,NaN,NaN,NaN,NaN,NaN,NaN,,NaN,NaN,NaN,NaN,NaN,NaN,"",,NaN,4,0,4,0,1,3,200,0,200,0,1,199,,NaN,200,0,200,0,1,199,,NaN,,NaN,,NaN
NaN,NaN,NaN,NaN,NaN,"",NaN,NaN,"",NaN,NaN,1,1,31,1,30,99,55,0.05,0.15,0.1,0.05,30,55,99,0.05,0.1,0.15,0,4,0,0,30,30,2312,74,0,0,0,31,2312,74,126,0,,NaN,NaN,NaN,NaN,NaN,NaN,66,1,2020-11-11_17h09.37.730,Pirates_expt3,2020.1.2,Win32,60,NaN,NaN,NaN,NaN,NaN,NaN,NaN,,NaN,NaN,NaN,NaN,NaN,NaN,,NaN,NaN,NaN,NaN,NaN,NaN,"",,NaN,4,0,4,0,1,3,200,0,200,0,1,199,,NaN,200,0,200,0,1,199,space,0.226395,,NaN,,NaN
NaN,NaN,NaN,NaN,NaN,"",NaN,NaN,"",NaN,NaN,NaN,NaN,NaN,NaN,NaN,NaN,NaN,NaN,NaN,NaN,NaN,NaN,NaN,NaN,NaN,NaN,NaN,NaN,NaN,,NaN,NaN,NaN,NaN,NaN,,NaN,NaN,NaN,NaN,NaN,NaN,NaN,,NaN,NaN,NaN,NaN,NaN,NaN,66,1,2020-11-11_17h09.37.730,Pirates_expt3,2020.1.2,Win32,60,NaN,NaN,NaN,NaN,NaN,NaN,NaN,,NaN,NaN,NaN,NaN,NaN,NaN,,NaN,NaN,NaN,NaN,NaN,NaN,"",,NaN,NaN,NaN,NaN,NaN,NaN,NaN,NaN,NaN,NaN,NaN,NaN,NaN,,NaN,4,0,4,0,1,NaN,,NaN,,NaN,,NaN
NaN,NaN,NaN,NaN,NaN,"",NaN,NaN,"",NaN,NaN,1,1,31,1,23,99,55,0.05,0.15,0.1,0.05,23,55,99,0.05,0.1,0.15,2,3,0,0,23,23,2312,74,space,0.047,0,31,2312,74,126,0,,NaN,NaN,NaN,NaN,NaN,NaN,66,1,2020-11-11_17h09.37.730,Pirates_expt3,2020.1.2,Win32,60,NaN,NaN,NaN,NaN,NaN,NaN,NaN,,NaN,NaN,NaN,NaN,NaN,NaN,,NaN,NaN,NaN,NaN,NaN,NaN,"",,NaN,4,0,4,0,1,3,200,0,200,0,1,199,,NaN,200,0,200,0,1,199,,NaN,,NaN,,NaN
NaN,NaN,NaN,NaN,NaN,"",NaN,NaN,"",NaN,NaN,1,1,31,1,23,99,60,0.05,0.15,0.1,0.05,23,60,99,0.05,0.1,0.15,0,4,0,0,23,23,2336,75,0,0,0,31,2336,75,125,0,,NaN,NaN,NaN,NaN,NaN,NaN,66,1,2020-11-11_17h09.37.730,Pirates_expt3,2020.1.2,Win32,60,NaN,NaN,NaN,NaN,NaN,NaN,NaN,,NaN,NaN,NaN,NaN,NaN,NaN,,NaN,NaN,NaN,NaN,NaN,NaN,"",,NaN,4,0,4,0,1,3,200,0,200,0,1,199,,NaN,200,0,200,0,1,199,space,0.047,,NaN,,NaN
NaN,NaN,NaN,NaN,NaN,"",NaN,NaN,"",NaN,NaN,NaN,NaN,NaN,NaN,NaN,NaN,NaN,NaN,NaN,NaN,NaN,NaN,NaN,NaN,NaN,NaN,NaN,NaN,NaN,,NaN,NaN,NaN,NaN,NaN,,NaN,NaN,NaN,NaN,NaN,NaN,NaN,,NaN,NaN,NaN,NaN,NaN,NaN,66,1,2020-11-11_17h09.37.730,Pirates_expt3,2020.1.2,Win32,60,NaN,NaN,NaN,NaN,NaN,NaN,NaN,,NaN,NaN,NaN,NaN,NaN,NaN,,NaN,NaN,NaN,NaN,NaN,NaN,"",,NaN,NaN,NaN,NaN,NaN,NaN,NaN,NaN,NaN,NaN,NaN,NaN,NaN,,NaN,5,0,5,0,1,NaN,,NaN,,NaN,,NaN
NaN,NaN,NaN,NaN,NaN,"",NaN,NaN,"",NaN,NaN,1,1,31,1,17,99,60,0.05,0.15,0.1,0.05,17,60,99,0.05,0.1,0.15,2,3,0,0,17,17,2336,75,space,0.059715,0,31,2336,75,125,0,,NaN,NaN,NaN,NaN,NaN,NaN,66,1,2020-11-11_17h09.37.730,Pirates_expt3,2020.1.2,Win32,60,NaN,NaN,NaN,NaN,NaN,NaN,NaN,,NaN,NaN,NaN,NaN,NaN,NaN,,NaN,NaN,NaN,NaN,NaN,NaN,"",,NaN,4,0,4,0,1,3,200,0,200,0,1,199,,NaN,200,0,200,0,1,199,,NaN,,NaN,,NaN
NaN,NaN,NaN,NaN,NaN,"",NaN,NaN,"",NaN,NaN,1,1,30,1,17,99,64,0.05,0.15,0.1,0.05,17,64,99,0.05,0.1,0.15,0,4,0,0,17,17,2354,76,0,0,0,30,2354,76,124,0,,NaN,NaN,NaN,NaN,NaN,NaN,66,1,2020-11-11_17h09.37.730,Pirates_expt3,2020.1.2,Win32,60,NaN,NaN,NaN,NaN,NaN,NaN,NaN,,NaN,NaN,NaN,NaN,NaN,NaN,,NaN,NaN,NaN,NaN,NaN,NaN,"",,NaN,4,0,4,0,1,3,200,0,200,0,1,199,,NaN,200,0,200,0,1,199,space,0.059715,,NaN,,NaN
NaN,NaN,NaN,NaN,NaN,"",NaN,NaN,"",NaN,NaN,NaN,NaN,NaN,NaN,NaN,NaN,NaN,NaN,NaN,NaN,NaN,NaN,NaN,NaN,NaN,NaN,NaN,NaN,NaN,,NaN,NaN,NaN,NaN,NaN,,NaN,NaN,NaN,NaN,NaN,NaN,NaN,,NaN,NaN,NaN,NaN,NaN,NaN,66,1,2020-11-11_17h09.37.730,Pirates_expt3,2020.1.2,Win32,60,NaN,NaN,NaN,NaN,NaN,NaN,NaN,,NaN,NaN,NaN,NaN,NaN,NaN,,NaN,NaN,NaN,NaN,NaN,NaN,"",,NaN,NaN,NaN,NaN,NaN,NaN,NaN,NaN,NaN,NaN,NaN,NaN,NaN,,NaN,6,0,6,0,1,NaN,,NaN,,NaN,,NaN
