consent_given,screeningQ1,screeningQ2,age,gender,startingValues,rewardVec,decay_rate,replenishRates,travel_duration,feedback_duration,blk_number,blk_type,meanRewardBlock,currentPatchPosition,patchValueLeft,patchValueTop,patchValueRight,patchReplenishLeft,patchReplenishTop,patchReplenishRight,currentPatchReplenishRate,patchValueSlow,patchValueMedium,patchValueFast,patchReplenishSlow,patchReplenishMedium,patchReplenishFast,decisionType,trialPhase,patch_selection_key,patch_selection_RT,actual_rew_gain,rew_fbk_displayed,blk_points,blk_actions,exploit_phase_key,exploit_phase_RT,num_exploit_actions,meanRewardEntireExperiment,total_points,total_actions,actions_remaining,timeInPatch_seconds_,task_instruc_resp_keys,task_instruc_resp_rt,trials_welcome_thisRepN,trials_welcome_thisTrialN,trials_welcome_thisN,trials_welcome_thisIndex,trials_welcome_ran,participant,session,date,expName,psychopyVersion,OS,frameRate,slider_response,slider_rt,trials_screening_thisRepN,trials_screening_thisTrialN,trials_screening_thisN,trials_screening_thisIndex,trials_screening_ran,demo_resp_keys,demo_resp_rt,trials_demographics_thisRepN,trials_demographics_thisTrialN,trials_demographics_thisN,trials_demographics_thisIndex,trials_demographics_ran,key_resp_keys,key_resp_rt,trials_instructions_thisRepN,trials_instructions_thisTrialN,trials_instructions_thisN,trials_instructions_thisIndex,trials_instructions_ran,rewardVectorToManipulate,blk_instruc_resp_keys,blk_instruc_resp_rt,blk_loop_thisRepN,blk_loop_thisTrialN,blk_loop_thisN,blk_loop_thisIndex,blk_loop_ran,blk_loop_order,trials_thisRepN,trials_thisTrialN,trials_thisN,trials_thisIndex,trials_ran,trials_order,sel_resp_keys,sel_resp_rt,exploit_loop_thisRepN,exploit_loop_thisTrialN,exploit_loop_thisN,exploit_loop_thisIndex,exploit_loop_ran,exploit_loop_order,exploit_resp_keys,exploit_resp_rt,post_blk_resp_keys,post_blk_resp_rt,closing_resp_keys,closing_resp_rt
0,0,0,0,0,"0",0,0,"0",0,0,0,0,0,0,0,0,0,0,0,0,0,0,0,0,0,0,0,0,0,0,0,0,0,0,0,0,0,0,0,NaN,NaN,NaN,0,space,6.78302,0,0,0,0,1,7,1,2020-11-10_09h25.37.286,Pirates_expt3,2020.1.2,Win32,60,NaN,NaN,NaN,NaN,NaN,NaN,NaN,,NaN,NaN,NaN,NaN,NaN,NaN,,NaN,NaN,NaN,NaN,NaN,NaN,"",,NaN,NaN,NaN,NaN,NaN,NaN,NaN,NaN,NaN,NaN,NaN,NaN,NaN,,NaN,NaN,NaN,NaN,NaN,NaN,NaN,,NaN,,NaN,,NaN
NaN,NaN,NaN,NaN,NaN,"",NaN,NaN,"",NaN,NaN,NaN,NaN,NaN,NaN,NaN,NaN,NaN,NaN,NaN,NaN,NaN,NaN,NaN,NaN,NaN,NaN,NaN,NaN,NaN,,NaN,NaN,NaN,NaN,NaN,,NaN,NaN,NaN,NaN,NaN,NaN,NaN,space,8.84925,1,0,1,0,1,7,1,2020-11-10_09h25.37.286,Pirates_expt3,2020.1.2,Win32,60,NaN,NaN,NaN,NaN,NaN,NaN,NaN,,NaN,NaN,NaN,NaN,NaN,NaN,,NaN,NaN,NaN,NaN,NaN,NaN,"",,NaN,NaN,NaN,NaN,NaN,NaN,NaN,NaN,NaN,NaN,NaN,NaN,NaN,,NaN,NaN,NaN,NaN,NaN,NaN,NaN,,NaN,,NaN,,NaN
NaN,NaN,NaN,NaN,NaN,"",NaN,NaN,"",NaN,NaN,NaN,NaN,NaN,NaN,NaN,NaN,NaN,NaN,NaN,NaN,NaN,NaN,NaN,NaN,NaN,NaN,NaN,NaN,NaN,,NaN,NaN,NaN,NaN,NaN,,NaN,NaN,NaN,NaN,NaN,NaN,NaN,space,4.23012,2,0,2,0,1,7,1,2020-11-10_09h25.37.286,Pirates_expt3,2020.1.2,Win32,60,NaN,NaN,NaN,NaN,NaN,NaN,NaN,,NaN,NaN,NaN,NaN,NaN,NaN,,NaN,NaN,NaN,NaN,NaN,NaN,"",,NaN,NaN,NaN,NaN,NaN,NaN,NaN,NaN,NaN,NaN,NaN,NaN,NaN,,NaN,NaN,NaN,NaN,NaN,NaN,NaN,,NaN,,NaN,,NaN
NaN,NaN,NaN,NaN,NaN,"",NaN,NaN,"",NaN,NaN,NaN,NaN,NaN,NaN,NaN,NaN,NaN,NaN,NaN,NaN,NaN,NaN,NaN,NaN,NaN,NaN,NaN,NaN,NaN,,NaN,NaN,NaN,NaN,NaN,,NaN,NaN,NaN,NaN,NaN,NaN,NaN,space,1.33119,3,0,3,0,1,7,1,2020-11-10_09h25.37.286,Pirates_expt3,2020.1.2,Win32,60,NaN,NaN,NaN,NaN,NaN,NaN,NaN,,NaN,NaN,NaN,NaN,NaN,NaN,,NaN,NaN,NaN,NaN,NaN,NaN,"",,NaN,NaN,NaN,NaN,NaN,NaN,NaN,NaN,NaN,NaN,NaN,NaN,NaN,,NaN,NaN,NaN,NaN,NaN,NaN,NaN,,NaN,,NaN,,NaN
NaN,NaN,NaN,NaN,NaN,"",NaN,NaN,"",NaN,NaN,NaN,NaN,NaN,NaN,NaN,NaN,NaN,NaN,NaN,NaN,NaN,NaN,NaN,NaN,NaN,NaN,NaN,NaN,NaN,,NaN,NaN,NaN,NaN,NaN,,NaN,NaN,NaN,NaN,NaN,NaN,NaN,space,1.82242,4,0,4,0,1,7,1,2020-11-10_09h25.37.286,Pirates_expt3,2020.1.2,Win32,60,NaN,NaN,NaN,NaN,NaN,NaN,NaN,,NaN,NaN,NaN,NaN,NaN,NaN,,NaN,NaN,NaN,NaN,NaN,NaN,"",,NaN,NaN,NaN,NaN,NaN,NaN,NaN,NaN,NaN,NaN,NaN,NaN,NaN,,NaN,NaN,NaN,NaN,NaN,NaN,NaN,,NaN,,NaN,,NaN
NaN,NaN,NaN,NaN,NaN,"",NaN,NaN,"",NaN,NaN,NaN,NaN,NaN,NaN,NaN,NaN,NaN,NaN,NaN,NaN,NaN,NaN,NaN,NaN,NaN,NaN,NaN,NaN,NaN,,NaN,NaN,NaN,NaN,NaN,,NaN,NaN,NaN,NaN,NaN,NaN,NaN,space,2.36674,5,0,5,0,1,7,1,2020-11-10_09h25.37.286,Pirates_expt3,2020.1.2,Win32,60,NaN,NaN,NaN,NaN,NaN,NaN,NaN,,NaN,NaN,NaN,NaN,NaN,NaN,,NaN,NaN,NaN,NaN,NaN,NaN,"",,NaN,NaN,NaN,NaN,NaN,NaN,NaN,NaN,NaN,NaN,NaN,NaN,NaN,,NaN,NaN,NaN,NaN,NaN,NaN,NaN,,NaN,,NaN,,NaN
1,0,NaN,NaN,NaN,"",NaN,NaN,"",NaN,NaN,NaN,NaN,NaN,NaN,NaN,NaN,NaN,NaN,NaN,NaN,NaN,NaN,NaN,NaN,NaN,NaN,NaN,NaN,NaN,,NaN,NaN,NaN,NaN,NaN,,NaN,NaN,NaN,NaN,NaN,NaN,NaN,,NaN,NaN,NaN,NaN,NaN,NaN,7,1,2020-11-10_09h25.37.286,Pirates_expt3,2020.1.2,Win32,60,1,5.37965,0,0,0,0,1,,NaN,NaN,NaN,NaN,NaN,NaN,,NaN,NaN,NaN,NaN,NaN,NaN,"",,NaN,NaN,NaN,NaN,NaN,NaN,NaN,NaN,NaN,NaN,NaN,NaN,NaN,,NaN,NaN,NaN,NaN,NaN,NaN,NaN,,NaN,,NaN,,NaN
NaN,NaN,1,NaN,NaN,"",NaN,NaN,"",NaN,NaN,NaN,NaN,NaN,NaN,NaN,NaN,NaN,NaN,NaN,NaN,NaN,NaN,NaN,NaN,NaN,NaN,NaN,NaN,NaN,,NaN,NaN,NaN,NaN,NaN,,NaN,NaN,NaN,NaN,NaN,NaN,NaN,,NaN,NaN,NaN,NaN,NaN,NaN,7,1,2020-11-10_09h25.37.286,Pirates_expt3,2020.1.2,Win32,60,3,22.681045,1,0,1,0,1,,NaN,NaN,NaN,NaN,NaN,NaN,,NaN,NaN,NaN,NaN,NaN,NaN,"",,NaN,NaN,NaN,NaN,NaN,NaN,NaN,NaN,NaN,NaN,NaN,NaN,NaN,,NaN,NaN,NaN,NaN,NaN,NaN,NaN,,NaN,,NaN,,NaN
NaN,NaN,NaN,20,NaN,"",NaN,NaN,"",NaN,NaN,NaN,NaN,NaN,NaN,NaN,NaN,NaN,NaN,NaN,NaN,NaN,NaN,NaN,NaN,NaN,NaN,NaN,NaN,NaN,,NaN,NaN,NaN,NaN,NaN,,NaN,NaN,NaN,NaN,NaN,NaN,NaN,,NaN,NaN,NaN,NaN,NaN,NaN,7,1,2020-11-10_09h25.37.286,Pirates_expt3,2020.1.2,Win32,60,NaN,NaN,NaN,NaN,NaN,NaN,NaN,return,5.92898,0,0,0,0,1,,NaN,NaN,NaN,NaN,NaN,NaN,"",,NaN,NaN,NaN,NaN,NaN,NaN,NaN,NaN,NaN,NaN,NaN,NaN,NaN,,NaN,NaN,NaN,NaN,NaN,NaN,NaN,,NaN,,NaN,,NaN
NaN,NaN,NaN,NaN,0,"",NaN,NaN,"",NaN,NaN,NaN,NaN,NaN,NaN,NaN,NaN,NaN,NaN,NaN,NaN,NaN,NaN,NaN,NaN,NaN,NaN,NaN,NaN,NaN,,NaN,NaN,NaN,NaN,NaN,,NaN,NaN,NaN,NaN,NaN,NaN,NaN,,NaN,NaN,NaN,NaN,NaN,NaN,7,1,2020-11-10_09h25.37.286,Pirates_expt3,2020.1.2,Win32,60,NaN,NaN,NaN,NaN,NaN,NaN,NaN,return,7.28116,1,0,1,0,1,,NaN,NaN,NaN,NaN,NaN,NaN,"",,NaN,NaN,NaN,NaN,NaN,NaN,NaN,NaN,NaN,NaN,NaN,NaN,NaN,,NaN,NaN,NaN,NaN,NaN,NaN,NaN,,NaN,,NaN,,NaN
NaN,NaN,NaN,NaN,NaN,"",NaN,NaN,"",NaN,NaN,NaN,NaN,NaN,NaN,NaN,NaN,NaN,NaN,NaN,NaN,NaN,NaN,NaN,NaN,NaN,NaN,NaN,NaN,NaN,,NaN,NaN,NaN,NaN,NaN,,NaN,NaN,NaN,NaN,NaN,NaN,NaN,,NaN,NaN,NaN,NaN,NaN,NaN,7,1,2020-11-10_09h25.37.286,Pirates_expt3,2020.1.2,Win32,60,NaN,NaN,NaN,NaN,NaN,NaN,NaN,,NaN,NaN,NaN,NaN,NaN,NaN,space,40.086665,0,0,0,0,1,"",,NaN,NaN,NaN,NaN,NaN,NaN,NaN,NaN,NaN,NaN,NaN,NaN,NaN,,NaN,NaN,NaN,NaN,NaN,NaN,NaN,,NaN,,NaN,,NaN
NaN,NaN,NaN,NaN,NaN,"",NaN,NaN,"",NaN,NaN,NaN,NaN,NaN,NaN,NaN,NaN,NaN,NaN,NaN,NaN,NaN,NaN,NaN,NaN,NaN,NaN,NaN,NaN,NaN,,NaN,NaN,NaN,NaN,NaN,,NaN,NaN,NaN,NaN,NaN,NaN,NaN,,NaN,NaN,NaN,NaN,NaN,NaN,7,1,2020-11-10_09h25.37.286,Pirates_expt3,2020.1.2,Win32,60,NaN,NaN,NaN,NaN,NaN,NaN,NaN,,NaN,NaN,NaN,NaN,NaN,NaN,space,4.979185,1,0,1,0,1,"",,NaN,NaN,NaN,NaN,NaN,NaN,NaN,NaN,NaN,NaN,NaN,NaN,NaN,,NaN,NaN,NaN,NaN,NaN,NaN,NaN,,NaN,,NaN,,NaN
NaN,NaN,NaN,NaN,NaN,"",NaN,NaN,"",NaN,NaN,NaN,NaN,NaN,NaN,NaN,NaN,NaN,NaN,NaN,NaN,NaN,NaN,NaN,NaN,NaN,NaN,NaN,NaN,NaN,,NaN,NaN,NaN,NaN,NaN,,NaN,NaN,NaN,NaN,NaN,NaN,NaN,,NaN,NaN,NaN,NaN,NaN,NaN,7,1,2020-11-10_09h25.37.286,Pirates_expt3,2020.1.2,Win32,60,NaN,NaN,NaN,NaN,NaN,NaN,NaN,,NaN,NaN,NaN,NaN,NaN,NaN,space,4.377415,2,0,2,0,1,"",,NaN,NaN,NaN,NaN,NaN,NaN,NaN,NaN,NaN,NaN,NaN,NaN,NaN,,NaN,NaN,NaN,NaN,NaN,NaN,NaN,,NaN,,NaN,,NaN
NaN,NaN,NaN,NaN,NaN,"",NaN,NaN,"",NaN,NaN,NaN,NaN,NaN,NaN,NaN,NaN,NaN,NaN,NaN,NaN,NaN,NaN,NaN,NaN,NaN,NaN,NaN,NaN,NaN,,NaN,NaN,NaN,NaN,NaN,,NaN,NaN,NaN,NaN,NaN,NaN,NaN,,NaN,NaN,NaN,NaN,NaN,NaN,7,1,2020-11-10_09h25.37.286,Pirates_expt3,2020.1.2,Win32,60,NaN,NaN,NaN,NaN,NaN,NaN,NaN,,NaN,NaN,NaN,NaN,NaN,NaN,space,5.542955,3,0,3,0,1,"",,NaN,NaN,NaN,NaN,NaN,NaN,NaN,NaN,NaN,NaN,NaN,NaN,NaN,,NaN,NaN,NaN,NaN,NaN,NaN,NaN,,NaN,,NaN,,NaN
NaN,NaN,NaN,NaN,NaN,"",NaN,NaN,"",NaN,NaN,NaN,NaN,NaN,NaN,NaN,NaN,NaN,NaN,NaN,NaN,NaN,NaN,NaN,NaN,NaN,NaN,NaN,NaN,NaN,,NaN,NaN,NaN,NaN,NaN,,NaN,NaN,NaN,NaN,NaN,NaN,NaN,,NaN,NaN,NaN,NaN,NaN,NaN,7,1,2020-11-10_09h25.37.286,Pirates_expt3,2020.1.2,Win32,60,NaN,NaN,NaN,NaN,NaN,NaN,NaN,,NaN,NaN,NaN,NaN,NaN,NaN,space,5.053685,4,0,4,0,1,"",,NaN,NaN,NaN,NaN,NaN,NaN,NaN,NaN,NaN,NaN,NaN,NaN,NaN,,NaN,NaN,NaN,NaN,NaN,NaN,NaN,,NaN,,NaN,,NaN
NaN,NaN,NaN,NaN,NaN,"",NaN,NaN,"",NaN,NaN,NaN,NaN,NaN,NaN,NaN,NaN,NaN,NaN,NaN,NaN,NaN,NaN,NaN,NaN,NaN,NaN,NaN,NaN,NaN,,NaN,NaN,NaN,NaN,NaN,,NaN,NaN,NaN,NaN,NaN,NaN,NaN,,NaN,NaN,NaN,NaN,NaN,NaN,7,1,2020-11-10_09h25.37.286,Pirates_expt3,2020.1.2,Win32,60,NaN,NaN,NaN,NaN,NaN,NaN,NaN,,NaN,NaN,NaN,NaN,NaN,NaN,space,6.634305,5,0,5,0,1,"",,NaN,NaN,NaN,NaN,NaN,NaN,NaN,NaN,NaN,NaN,NaN,NaN,NaN,,NaN,NaN,NaN,NaN,NaN,NaN,NaN,,NaN,,NaN,,NaN
NaN,NaN,NaN,NaN,NaN,"",NaN,NaN,"",NaN,NaN,NaN,NaN,NaN,NaN,NaN,NaN,NaN,NaN,NaN,NaN,NaN,NaN,NaN,NaN,NaN,NaN,NaN,NaN,NaN,,NaN,NaN,NaN,NaN,NaN,,NaN,NaN,NaN,NaN,NaN,NaN,NaN,,NaN,NaN,NaN,NaN,NaN,NaN,7,1,2020-11-10_09h25.37.286,Pirates_expt3,2020.1.2,Win32,60,NaN,NaN,NaN,NaN,NaN,NaN,NaN,,NaN,NaN,NaN,NaN,NaN,NaN,space,4.717245,6,0,6,0,1,"",,NaN,NaN,NaN,NaN,NaN,NaN,NaN,NaN,NaN,NaN,NaN,NaN,NaN,,NaN,NaN,NaN,NaN,NaN,NaN,NaN,,NaN,,NaN,,NaN
NaN,NaN,NaN,NaN,NaN,"",NaN,NaN,"",NaN,NaN,NaN,NaN,NaN,NaN,NaN,NaN,NaN,NaN,NaN,NaN,NaN,NaN,NaN,NaN,NaN,NaN,NaN,NaN,NaN,,NaN,NaN,NaN,NaN,NaN,,NaN,NaN,NaN,NaN,NaN,NaN,NaN,,NaN,NaN,NaN,NaN,NaN,NaN,7,1,2020-11-10_09h25.37.286,Pirates_expt3,2020.1.2,Win32,60,NaN,NaN,NaN,NaN,NaN,NaN,NaN,,NaN,NaN,NaN,NaN,NaN,NaN,space,1.03371,7,0,7,0,1,"",,NaN,NaN,NaN,NaN,NaN,NaN,NaN,NaN,NaN,NaN,NaN,NaN,NaN,,NaN,NaN,NaN,NaN,NaN,NaN,NaN,,NaN,,NaN,,NaN
NaN,NaN,NaN,NaN,NaN,"",NaN,NaN,"",NaN,NaN,NaN,NaN,NaN,NaN,NaN,NaN,NaN,NaN,NaN,NaN,NaN,NaN,NaN,NaN,NaN,NaN,NaN,NaN,NaN,,NaN,NaN,NaN,NaN,NaN,,NaN,NaN,NaN,NaN,NaN,NaN,NaN,,NaN,NaN,NaN,NaN,NaN,NaN,7,1,2020-11-10_09h25.37.286,Pirates_expt3,2020.1.2,Win32,60,NaN,NaN,NaN,NaN,NaN,NaN,NaN,,NaN,NaN,NaN,NaN,NaN,NaN,space,2.918375,8,0,8,0,1,"",,NaN,NaN,NaN,NaN,NaN,NaN,NaN,NaN,NaN,NaN,NaN,NaN,NaN,,NaN,NaN,NaN,NaN,NaN,NaN,NaN,,NaN,,NaN,,NaN
NaN,NaN,NaN,NaN,NaN,"",NaN,NaN,"",NaN,NaN,NaN,NaN,NaN,NaN,NaN,NaN,NaN,NaN,NaN,NaN,NaN,NaN,NaN,NaN,NaN,NaN,NaN,NaN,NaN,,NaN,NaN,NaN,NaN,NaN,,NaN,NaN,NaN,NaN,NaN,NaN,NaN,,NaN,NaN,NaN,NaN,NaN,NaN,7,1,2020-11-10_09h25.37.286,Pirates_expt3,2020.1.2,Win32,60,NaN,NaN,NaN,NaN,NaN,NaN,NaN,,NaN,NaN,NaN,NaN,NaN,NaN,space,1.959345,9,0,9,0,1,"",,NaN,NaN,NaN,NaN,NaN,NaN,NaN,NaN,NaN,NaN,NaN,NaN,NaN,,NaN,NaN,NaN,NaN,NaN,NaN,NaN,,NaN,,NaN,,NaN
NaN,NaN,NaN,NaN,NaN,"[100,100,100]",NaN,0.05,"[0.05,0.1,0.15]",1,1.5,1,1,0,1,77,73,72,0.05,0.1,0.15,0.05,77,73,72,0.05,0.1,0.15,1,1,f,2.47296,0,0,0,1,N/A,0,0,0,0,1,199,0,,NaN,NaN,NaN,NaN,NaN,NaN,7,1,2020-11-10_09h25.37.286,Pirates_expt3,2020.1.2,Win32,60,NaN,NaN,NaN,NaN,NaN,NaN,NaN,,NaN,NaN,NaN,NaN,NaN,NaN,,NaN,NaN,NaN,NaN,NaN,NaN,"[77,73,72]",return,5.23648,4,0,4,0,1,3,200,0,200,0,1,199,,NaN,NaN,NaN,NaN,NaN,NaN,NaN,,NaN,,NaN,,NaN
NaN,NaN,NaN,NaN,NaN,"",NaN,NaN,"",NaN,NaN,1,1,0,1,78,75,76,0.05,0.1,0.15,0.05,78,75,76,0.05,0.1,0.15,0,2,0,0,0,0,0,1,N/A,0,0,0,0,1,199,0,,NaN,NaN,NaN,NaN,NaN,NaN,7,1,2020-11-10_09h25.37.286,Pirates_expt3,2020.1.2,Win32,60,NaN,NaN,NaN,NaN,NaN,NaN,NaN,,NaN,NaN,NaN,NaN,NaN,NaN,,NaN,NaN,NaN,NaN,NaN,NaN,"",,NaN,4,0,4,0,1,3,200,0,200,0,1,199,f,2.47296,NaN,NaN,NaN,NaN,NaN,NaN,,NaN,,NaN,,NaN
NaN,NaN,NaN,NaN,NaN,"",NaN,NaN,"",NaN,NaN,1,1,0,1,78,75,76,0.05,0.1,0.15,0.05,78,75,76,0.05,0.1,0.15,2,3,0,0,78,78,0,1,space,1.3962,0,0,0,1,199,0,,NaN,NaN,NaN,NaN,NaN,NaN,7,1,2020-11-10_09h25.37.286,Pirates_expt3,2020.1.2,Win32,60,NaN,NaN,NaN,NaN,NaN,NaN,NaN,,NaN,NaN,NaN,NaN,NaN,NaN,,NaN,NaN,NaN,NaN,NaN,NaN,"",,NaN,4,0,4,0,1,3,200,0,200,0,1,199,,NaN,200,0,200,0,1,199,,NaN,,NaN,,NaN
NaN,NaN,NaN,NaN,NaN,"",NaN,NaN,"",NaN,NaN,1,1,39,1,78,78,79,0.05,0.1,0.15,0.05,78,78,79,0.05,0.1,0.15,0,4,0,0,78,78,78,2,0,0,0,39,78,2,198,0,,NaN,NaN,NaN,NaN,NaN,NaN,7,1,2020-11-10_09h25.37.286,Pirates_expt3,2020.1.2,Win32,60,NaN,NaN,NaN,NaN,NaN,NaN,NaN,,NaN,NaN,NaN,NaN,NaN,NaN,,NaN,NaN,NaN,NaN,NaN,NaN,"",,NaN,4,0,4,0,1,3,200,0,200,0,1,199,,NaN,200,0,200,0,1,199,space,1.3962,,NaN,,NaN
NaN,NaN,NaN,NaN,NaN,"",NaN,NaN,"",NaN,NaN,NaN,NaN,NaN,NaN,NaN,NaN,NaN,NaN,NaN,NaN,NaN,NaN,NaN,NaN,NaN,NaN,NaN,NaN,NaN,,NaN,NaN,NaN,NaN,NaN,,NaN,NaN,NaN,NaN,NaN,NaN,NaN,,NaN,NaN,NaN,NaN,NaN,NaN,7,1,2020-11-10_09h25.37.286,Pirates_expt3,2020.1.2,Win32,60,NaN,NaN,NaN,NaN,NaN,NaN,NaN,,NaN,NaN,NaN,NaN,NaN,NaN,,NaN,NaN,NaN,NaN,NaN,NaN,"",,NaN,NaN,NaN,NaN,NaN,NaN,NaN,NaN,NaN,NaN,NaN,NaN,NaN,,NaN,0,0,0,0,1,NaN,,NaN,,NaN,,NaN
NaN,NaN,NaN,NaN,NaN,"",NaN,NaN,"",NaN,NaN,1,1,39,1,74,78,79,0.05,0.1,0.15,0.05,74,78,79,0.05,0.1,0.15,3,3,0,0,74,74,78,2,s,5.400595,1,39,78,2,198,0,,NaN,NaN,NaN,NaN,NaN,NaN,7,1,2020-11-10_09h25.37.286,Pirates_expt3,2020.1.2,Win32,60,NaN,NaN,NaN,NaN,NaN,NaN,NaN,,NaN,NaN,NaN,NaN,NaN,NaN,,NaN,NaN,NaN,NaN,NaN,NaN,"",,NaN,4,0,4,0,1,3,200,0,200,0,1,199,,NaN,200,0,200,0,1,199,,NaN,,NaN,,NaN
NaN,NaN,NaN,NaN,NaN,"",NaN,NaN,"",NaN,NaN,1,1,26,1,75,80,82,0.05,0.1,0.15,0.05,75,80,82,0.05,0.1,0.15,0,4,0,0,75,74,78,3,0,0,0,26,78,3,197,8.382,,NaN,NaN,NaN,NaN,NaN,NaN,7,1,2020-11-10_09h25.37.286,Pirates_expt3,2020.1.2,Win32,60,NaN,NaN,NaN,NaN,NaN,NaN,NaN,,NaN,NaN,NaN,NaN,NaN,NaN,,NaN,NaN,NaN,NaN,NaN,NaN,"",,NaN,4,0,4,0,1,3,200,0,200,0,1,199,,NaN,200,0,200,0,1,199,s,5.400595,,NaN,,NaN
NaN,NaN,NaN,NaN,NaN,"",NaN,NaN,"",NaN,NaN,NaN,NaN,NaN,NaN,NaN,NaN,NaN,NaN,NaN,NaN,NaN,NaN,NaN,NaN,NaN,NaN,NaN,NaN,NaN,,NaN,NaN,NaN,NaN,NaN,,NaN,NaN,NaN,NaN,NaN,NaN,NaN,,NaN,NaN,NaN,NaN,NaN,NaN,7,1,2020-11-10_09h25.37.286,Pirates_expt3,2020.1.2,Win32,60,NaN,NaN,NaN,NaN,NaN,NaN,NaN,,NaN,NaN,NaN,NaN,NaN,NaN,,NaN,NaN,NaN,NaN,NaN,NaN,"",,NaN,NaN,NaN,NaN,NaN,NaN,NaN,0,0,0,0,1,NaN,,NaN,NaN,NaN,NaN,NaN,NaN,NaN,,NaN,,NaN,,NaN
NaN,NaN,NaN,NaN,NaN,"",NaN,NaN,"",NaN,NaN,1,1,26,3,75,80,82,0.05,0.1,0.15,0.15,75,80,82,0.05,0.1,0.15,1,1,k,1.23422,0,0,78,4,N/A,0,0,26,78,4,196,0,,NaN,NaN,NaN,NaN,NaN,NaN,7,1,2020-11-10_09h25.37.286,Pirates_expt3,2020.1.2,Win32,60,NaN,NaN,NaN,NaN,NaN,NaN,NaN,,NaN,NaN,NaN,NaN,NaN,NaN,,NaN,NaN,NaN,NaN,NaN,NaN,"",,NaN,4,0,4,0,1,3,200,0,200,0,1,199,,NaN,NaN,NaN,NaN,NaN,NaN,NaN,,NaN,,NaN,,NaN
NaN,NaN,NaN,NaN,NaN,"",NaN,NaN,"",NaN,NaN,1,1,26,3,76,82,85,0.05,0.1,0.15,0.15,76,82,85,0.05,0.1,0.15,0,2,0,0,0,0,78,4,N/A,0,0,26,78,4,196,0,,NaN,NaN,NaN,NaN,NaN,NaN,7,1,2020-11-10_09h25.37.286,Pirates_expt3,2020.1.2,Win32,60,NaN,NaN,NaN,NaN,NaN,NaN,NaN,,NaN,NaN,NaN,NaN,NaN,NaN,,NaN,NaN,NaN,NaN,NaN,NaN,"",,NaN,4,0,4,0,1,3,200,0,200,0,1,199,k,1.23422,NaN,NaN,NaN,NaN,NaN,NaN,,NaN,,NaN,,NaN
NaN,NaN,NaN,NaN,NaN,"",NaN,NaN,"",NaN,NaN,1,1,19,3,76,82,85,0.05,0.1,0.15,0.15,76,82,85,0.05,0.1,0.15,2,3,0,0,85,85,78,4,space,1.80613,0,19,78,4,196,0,,NaN,NaN,NaN,NaN,NaN,NaN,7,1,2020-11-10_09h25.37.286,Pirates_expt3,2020.1.2,Win32,60,NaN,NaN,NaN,NaN,NaN,NaN,NaN,,NaN,NaN,NaN,NaN,NaN,NaN,,NaN,NaN,NaN,NaN,NaN,NaN,"",,NaN,4,0,4,0,1,3,200,0,200,0,1,199,,NaN,200,0,200,0,1,199,,NaN,,NaN,,NaN
NaN,NaN,NaN,NaN,NaN,"",NaN,NaN,"",NaN,NaN,1,1,32,3,77,84,85,0.05,0.1,0.15,0.15,77,84,85,0.05,0.1,0.15,0,4,0,0,85,85,163,5,0,0,0,32,163,5,195,0,,NaN,NaN,NaN,NaN,NaN,NaN,7,1,2020-11-10_09h25.37.286,Pirates_expt3,2020.1.2,Win32,60,NaN,NaN,NaN,NaN,NaN,NaN,NaN,,NaN,NaN,NaN,NaN,NaN,NaN,,NaN,NaN,NaN,NaN,NaN,NaN,"",,NaN,4,0,4,0,1,3,200,0,200,0,1,199,,NaN,200,0,200,0,1,199,space,1.80613,,NaN,,NaN
NaN,NaN,NaN,NaN,NaN,"",NaN,NaN,"",NaN,NaN,NaN,NaN,NaN,NaN,NaN,NaN,NaN,NaN,NaN,NaN,NaN,NaN,NaN,NaN,NaN,NaN,NaN,NaN,NaN,,NaN,NaN,NaN,NaN,NaN,,NaN,NaN,NaN,NaN,NaN,NaN,NaN,,NaN,NaN,NaN,NaN,NaN,NaN,7,1,2020-11-10_09h25.37.286,Pirates_expt3,2020.1.2,Win32,60,NaN,NaN,NaN,NaN,NaN,NaN,NaN,,NaN,NaN,NaN,NaN,NaN,NaN,,NaN,NaN,NaN,NaN,NaN,NaN,"",,NaN,NaN,NaN,NaN,NaN,NaN,NaN,NaN,NaN,NaN,NaN,NaN,NaN,,NaN,0,0,0,0,1,NaN,,NaN,,NaN,,NaN
NaN,NaN,NaN,NaN,NaN,"",NaN,NaN,"",NaN,NaN,1,1,32,3,77,84,81,0.05,0.1,0.15,0.15,77,84,81,0.05,0.1,0.15,3,3,0,0,81,81,163,5,s,3.733735,1,32,163,5,195,0,,NaN,NaN,NaN,NaN,NaN,NaN,7,1,2020-11-10_09h25.37.286,Pirates_expt3,2020.1.2,Win32,60,NaN,NaN,NaN,NaN,NaN,NaN,NaN,,NaN,NaN,NaN,NaN,NaN,NaN,,NaN,NaN,NaN,NaN,NaN,NaN,"",,NaN,4,0,4,0,1,3,200,0,200,0,1,199,,NaN,200,0,200,0,1,199,,NaN,,NaN,,NaN
NaN,NaN,NaN,NaN,NaN,"",NaN,NaN,"",NaN,NaN,1,1,27,3,79,85,83,0.05,0.1,0.15,0.15,79,85,83,0.05,0.1,0.15,0,4,0,0,83,81,163,6,0,0,0,27,163,6,194,7.114,,NaN,NaN,NaN,NaN,NaN,NaN,7,1,2020-11-10_09h25.37.286,Pirates_expt3,2020.1.2,Win32,60,NaN,NaN,NaN,NaN,NaN,NaN,NaN,,NaN,NaN,NaN,NaN,NaN,NaN,,NaN,NaN,NaN,NaN,NaN,NaN,"",,NaN,4,0,4,0,1,3,200,0,200,0,1,199,,NaN,200,0,200,0,1,199,s,3.733735,,NaN,,NaN
NaN,NaN,NaN,NaN,NaN,"",NaN,NaN,"",NaN,NaN,NaN,NaN,NaN,NaN,NaN,NaN,NaN,NaN,NaN,NaN,NaN,NaN,NaN,NaN,NaN,NaN,NaN,NaN,NaN,,NaN,NaN,NaN,NaN,NaN,,NaN,NaN,NaN,NaN,NaN,NaN,NaN,,NaN,NaN,NaN,NaN,NaN,NaN,7,1,2020-11-10_09h25.37.286,Pirates_expt3,2020.1.2,Win32,60,NaN,NaN,NaN,NaN,NaN,NaN,NaN,,NaN,NaN,NaN,NaN,NaN,NaN,,NaN,NaN,NaN,NaN,NaN,NaN,"",,NaN,NaN,NaN,NaN,NaN,NaN,NaN,1,0,1,0,1,NaN,,NaN,NaN,NaN,NaN,NaN,NaN,NaN,,NaN,,NaN,,NaN
NaN,NaN,NaN,NaN,NaN,"",NaN,NaN,"",NaN,NaN,1,1,27,2,79,85,83,0.05,0.1,0.15,0.1,79,85,83,0.05,0.1,0.15,1,1,j,1.47132,0,0,163,7,N/A,0,0,27,163,7,193,0,,NaN,NaN,NaN,NaN,NaN,NaN,7,1,2020-11-10_09h25.37.286,Pirates_expt3,2020.1.2,Win32,60,NaN,NaN,NaN,NaN,NaN,NaN,NaN,,NaN,NaN,NaN,NaN,NaN,NaN,,NaN,NaN,NaN,NaN,NaN,NaN,"",,NaN,4,0,4,0,1,3,200,0,200,0,1,199,,NaN,NaN,NaN,NaN,NaN,NaN,NaN,,NaN,,NaN,,NaN
NaN,NaN,NaN,NaN,NaN,"",NaN,NaN,"",NaN,NaN,1,1,27,2,80,87,86,0.05,0.1,0.15,0.1,80,87,86,0.05,0.1,0.15,0,2,0,0,0,0,163,7,N/A,0,0,27,163,7,193,0,,NaN,NaN,NaN,NaN,NaN,NaN,7,1,2020-11-10_09h25.37.286,Pirates_expt3,2020.1.2,Win32,60,NaN,NaN,NaN,NaN,NaN,NaN,NaN,,NaN,NaN,NaN,NaN,NaN,NaN,,NaN,NaN,NaN,NaN,NaN,NaN,"",,NaN,4,0,4,0,1,3,200,0,200,0,1,199,j,1.47132,NaN,NaN,NaN,NaN,NaN,NaN,,NaN,,NaN,,NaN
NaN,NaN,NaN,NaN,NaN,"",NaN,NaN,"",NaN,NaN,1,1,23,2,80,87,86,0.05,0.1,0.15,0.1,80,87,86,0.05,0.1,0.15,2,3,0,0,87,87,163,7,space,1.10616,0,23,163,7,193,0,,NaN,NaN,NaN,NaN,NaN,NaN,7,1,2020-11-10_09h25.37.286,Pirates_expt3,2020.1.2,Win32,60,NaN,NaN,NaN,NaN,NaN,NaN,NaN,,NaN,NaN,NaN,NaN,NaN,NaN,,NaN,NaN,NaN,NaN,NaN,NaN,"",,NaN,4,0,4,0,1,3,200,0,200,0,1,199,,NaN,200,0,200,0,1,199,,NaN,,NaN,,NaN
NaN,NaN,NaN,NaN,NaN,"",NaN,NaN,"",NaN,NaN,1,1,31,2,81,87,88,0.05,0.1,0.15,0.1,81,87,88,0.05,0.1,0.15,0,4,0,0,87,87,250,8,0,0,0,31,250,8,192,0,,NaN,NaN,NaN,NaN,NaN,NaN,7,1,2020-11-10_09h25.37.286,Pirates_expt3,2020.1.2,Win32,60,NaN,NaN,NaN,NaN,NaN,NaN,NaN,,NaN,NaN,NaN,NaN,NaN,NaN,,NaN,NaN,NaN,NaN,NaN,NaN,"",,NaN,4,0,4,0,1,3,200,0,200,0,1,199,,NaN,200,0,200,0,1,199,space,1.10616,,NaN,,NaN
NaN,NaN,NaN,NaN,NaN,"",NaN,NaN,"",NaN,NaN,NaN,NaN,NaN,NaN,NaN,NaN,NaN,NaN,NaN,NaN,NaN,NaN,NaN,NaN,NaN,NaN,NaN,NaN,NaN,,NaN,NaN,NaN,NaN,NaN,,NaN,NaN,NaN,NaN,NaN,NaN,NaN,,NaN,NaN,NaN,NaN,NaN,NaN,7,1,2020-11-10_09h25.37.286,Pirates_expt3,2020.1.2,Win32,60,NaN,NaN,NaN,NaN,NaN,NaN,NaN,,NaN,NaN,NaN,NaN,NaN,NaN,,NaN,NaN,NaN,NaN,NaN,NaN,"",,NaN,NaN,NaN,NaN,NaN,NaN,NaN,NaN,NaN,NaN,NaN,NaN,NaN,,NaN,0,0,0,0,1,NaN,,NaN,,NaN,,NaN
NaN,NaN,NaN,NaN,NaN,"",NaN,NaN,"",NaN,NaN,1,1,31,2,81,82,88,0.05,0.1,0.15,0.1,81,82,88,0.05,0.1,0.15,3,3,0,0,82,82,250,8,s,1.94415,1,31,250,8,192,0,,NaN,NaN,NaN,NaN,NaN,NaN,7,1,2020-11-10_09h25.37.286,Pirates_expt3,2020.1.2,Win32,60,NaN,NaN,NaN,NaN,NaN,NaN,NaN,,NaN,NaN,NaN,NaN,NaN,NaN,,NaN,NaN,NaN,NaN,NaN,NaN,"",,NaN,4,0,4,0,1,3,200,0,200,0,1,199,,NaN,200,0,200,0,1,199,,NaN,,NaN,,NaN
NaN,NaN,NaN,NaN,NaN,"",NaN,NaN,"",NaN,NaN,1,1,27,2,82,84,90,0.05,0.1,0.15,0.1,82,84,90,0.05,0.1,0.15,0,4,0,0,84,82,250,9,0,0,0,27,250,9,191,4.633,,NaN,NaN,NaN,NaN,NaN,NaN,7,1,2020-11-10_09h25.37.286,Pirates_expt3,2020.1.2,Win32,60,NaN,NaN,NaN,NaN,NaN,NaN,NaN,,NaN,NaN,NaN,NaN,NaN,NaN,,NaN,NaN,NaN,NaN,NaN,NaN,"",,NaN,4,0,4,0,1,3,200,0,200,0,1,199,,NaN,200,0,200,0,1,199,s,1.94415,,NaN,,NaN
NaN,NaN,NaN,NaN,NaN,"",NaN,NaN,"",NaN,NaN,NaN,NaN,NaN,NaN,NaN,NaN,NaN,NaN,NaN,NaN,NaN,NaN,NaN,NaN,NaN,NaN,NaN,NaN,NaN,,NaN,NaN,NaN,NaN,NaN,,NaN,NaN,NaN,NaN,NaN,NaN,NaN,,NaN,NaN,NaN,NaN,NaN,NaN,7,1,2020-11-10_09h25.37.286,Pirates_expt3,2020.1.2,Win32,60,NaN,NaN,NaN,NaN,NaN,NaN,NaN,,NaN,NaN,NaN,NaN,NaN,NaN,,NaN,NaN,NaN,NaN,NaN,NaN,"",,NaN,NaN,NaN,NaN,NaN,NaN,NaN,2,0,2,0,1,NaN,,NaN,NaN,NaN,NaN,NaN,NaN,NaN,,NaN,,NaN,,NaN
NaN,NaN,NaN,NaN,NaN,"",NaN,NaN,"",NaN,NaN,1,1,27,1,82,84,90,0.05,0.1,0.15,0.05,82,84,90,0.05,0.1,0.15,1,1,f,2.001695,0,0,250,10,N/A,0,0,27,250,10,190,0,,NaN,NaN,NaN,NaN,NaN,NaN,7,1,2020-11-10_09h25.37.286,Pirates_expt3,2020.1.2,Win32,60,NaN,NaN,NaN,NaN,NaN,NaN,NaN,,NaN,NaN,NaN,NaN,NaN,NaN,,NaN,NaN,NaN,NaN,NaN,NaN,"",,NaN,4,0,4,0,1,3,200,0,200,0,1,199,,NaN,NaN,NaN,NaN,NaN,NaN,NaN,,NaN,,NaN,,NaN
NaN,NaN,NaN,NaN,NaN,"",NaN,NaN,"",NaN,NaN,1,1,27,1,82,86,91,0.05,0.1,0.15,0.05,82,86,91,0.05,0.1,0.15,0,2,0,0,0,0,250,10,N/A,0,0,27,250,10,190,0,,NaN,NaN,NaN,NaN,NaN,NaN,7,1,2020-11-10_09h25.37.286,Pirates_expt3,2020.1.2,Win32,60,NaN,NaN,NaN,NaN,NaN,NaN,NaN,,NaN,NaN,NaN,NaN,NaN,NaN,,NaN,NaN,NaN,NaN,NaN,NaN,"",,NaN,4,0,4,0,1,3,200,0,200,0,1,199,f,2.001695,NaN,NaN,NaN,NaN,NaN,NaN,,NaN,,NaN,,NaN
NaN,NaN,NaN,NaN,NaN,"",NaN,NaN,"",NaN,NaN,1,1,25,1,82,86,91,0.05,0.1,0.15,0.05,82,86,91,0.05,0.1,0.15,2,3,0,0,82,82,250,10,space,3.95226,0,25,250,10,190,0,,NaN,NaN,NaN,NaN,NaN,NaN,7,1,2020-11-10_09h25.37.286,Pirates_expt3,2020.1.2,Win32,60,NaN,NaN,NaN,NaN,NaN,NaN,NaN,,NaN,NaN,NaN,NaN,NaN,NaN,,NaN,NaN,NaN,NaN,NaN,NaN,"",,NaN,4,0,4,0,1,3,200,0,200,0,1,199,,NaN,200,0,200,0,1,199,,NaN,,NaN,,NaN
NaN,NaN,NaN,NaN,NaN,"",NaN,NaN,"",NaN,NaN,1,1,30,1,82,87,92,0.05,0.1,0.15,0.05,82,87,92,0.05,0.1,0.15,0,4,0,0,82,82,333,11,0,0,0,30,333,11,189,0,,NaN,NaN,NaN,NaN,NaN,NaN,7,1,2020-11-10_09h25.37.286,Pirates_expt3,2020.1.2,Win32,60,NaN,NaN,NaN,NaN,NaN,NaN,NaN,,NaN,NaN,NaN,NaN,NaN,NaN,,NaN,NaN,NaN,NaN,NaN,NaN,"",,NaN,4,0,4,0,1,3,200,0,200,0,1,199,,NaN,200,0,200,0,1,199,space,3.95226,,NaN,,NaN
NaN,NaN,NaN,NaN,NaN,"",NaN,NaN,"",NaN,NaN,NaN,NaN,NaN,NaN,NaN,NaN,NaN,NaN,NaN,NaN,NaN,NaN,NaN,NaN,NaN,NaN,NaN,NaN,NaN,,NaN,NaN,NaN,NaN,NaN,,NaN,NaN,NaN,NaN,NaN,NaN,NaN,,NaN,NaN,NaN,NaN,NaN,NaN,7,1,2020-11-10_09h25.37.286,Pirates_expt3,2020.1.2,Win32,60,NaN,NaN,NaN,NaN,NaN,NaN,NaN,,NaN,NaN,NaN,NaN,NaN,NaN,,NaN,NaN,NaN,NaN,NaN,NaN,"",,NaN,NaN,NaN,NaN,NaN,NaN,NaN,NaN,NaN,NaN,NaN,NaN,NaN,,NaN,0,0,0,0,1,NaN,,NaN,,NaN,,NaN
NaN,NaN,NaN,NaN,NaN,"",NaN,NaN,"",NaN,NaN,1,1,30,1,78,87,92,0.05,0.1,0.15,0.05,78,87,92,0.05,0.1,0.15,3,3,0,0,78,78,333,11,s,1.09207,1,30,333,11,189,0,,NaN,NaN,NaN,NaN,NaN,NaN,7,1,2020-11-10_09h25.37.286,Pirates_expt3,2020.1.2,Win32,60,NaN,NaN,NaN,NaN,NaN,NaN,NaN,,NaN,NaN,NaN,NaN,NaN,NaN,,NaN,NaN,NaN,NaN,NaN,NaN,"",,NaN,4,0,4,0,1,3,200,0,200,0,1,199,,NaN,200,0,200,0,1,199,,NaN,,NaN,,NaN
NaN,NaN,NaN,NaN,NaN,"",NaN,NaN,"",NaN,NaN,1,1,27,1,79,88,93,0.05,0.1,0.15,0.05,79,88,93,0.05,0.1,0.15,0,4,0,0,79,78,333,12,0,0,0,27,333,12,188,6.618,,NaN,NaN,NaN,NaN,NaN,NaN,7,1,2020-11-10_09h25.37.286,Pirates_expt3,2020.1.2,Win32,60,NaN,NaN,NaN,NaN,NaN,NaN,NaN,,NaN,NaN,NaN,NaN,NaN,NaN,,NaN,NaN,NaN,NaN,NaN,NaN,"",,NaN,4,0,4,0,1,3,200,0,200,0,1,199,,NaN,200,0,200,0,1,199,s,1.09207,,NaN,,NaN
NaN,NaN,NaN,NaN,NaN,"",NaN,NaN,"",NaN,NaN,NaN,NaN,NaN,NaN,NaN,NaN,NaN,NaN,NaN,NaN,NaN,NaN,NaN,NaN,NaN,NaN,NaN,NaN,NaN,,NaN,NaN,NaN,NaN,NaN,,NaN,NaN,NaN,NaN,NaN,NaN,NaN,,NaN,NaN,NaN,NaN,NaN,NaN,7,1,2020-11-10_09h25.37.286,Pirates_expt3,2020.1.2,Win32,60,NaN,NaN,NaN,NaN,NaN,NaN,NaN,,NaN,NaN,NaN,NaN,NaN,NaN,,NaN,NaN,NaN,NaN,NaN,NaN,"",,NaN,NaN,NaN,NaN,NaN,NaN,NaN,3,0,3,0,1,NaN,,NaN,NaN,NaN,NaN,NaN,NaN,NaN,,NaN,,NaN,,NaN
NaN,NaN,NaN,NaN,NaN,"",NaN,NaN,"",NaN,NaN,1,1,27,3,79,88,93,0.05,0.1,0.15,0.15,79,88,93,0.05,0.1,0.15,1,1,k,1.22795,0,0,333,13,N/A,0,0,27,333,13,187,0,,NaN,NaN,NaN,NaN,NaN,NaN,7,1,2020-11-10_09h25.37.286,Pirates_expt3,2020.1.2,Win32,60,NaN,NaN,NaN,NaN,NaN,NaN,NaN,,NaN,NaN,NaN,NaN,NaN,NaN,,NaN,NaN,NaN,NaN,NaN,NaN,"",,NaN,4,0,4,0,1,3,200,0,200,0,1,199,,NaN,NaN,NaN,NaN,NaN,NaN,NaN,,NaN,,NaN,,NaN
NaN,NaN,NaN,NaN,NaN,"",NaN,NaN,"",NaN,NaN,1,1,27,3,80,89,94,0.05,0.1,0.15,0.15,80,89,94,0.05,0.1,0.15,0,2,0,0,0,0,333,13,N/A,0,0,27,333,13,187,0,,NaN,NaN,NaN,NaN,NaN,NaN,7,1,2020-11-10_09h25.37.286,Pirates_expt3,2020.1.2,Win32,60,NaN,NaN,NaN,NaN,NaN,NaN,NaN,,NaN,NaN,NaN,NaN,NaN,NaN,,NaN,NaN,NaN,NaN,NaN,NaN,"",,NaN,4,0,4,0,1,3,200,0,200,0,1,199,k,1.22795,NaN,NaN,NaN,NaN,NaN,NaN,,NaN,,NaN,,NaN
NaN,NaN,NaN,NaN,NaN,"",NaN,NaN,"",NaN,NaN,1,1,25,3,80,89,94,0.05,0.1,0.15,0.15,80,89,94,0.05,0.1,0.15,2,3,0,0,94,94,333,13,space,4.73989,0,25,333,13,187,0,,NaN,NaN,NaN,NaN,NaN,NaN,7,1,2020-11-10_09h25.37.286,Pirates_expt3,2020.1.2,Win32,60,NaN,NaN,NaN,NaN,NaN,NaN,NaN,,NaN,NaN,NaN,NaN,NaN,NaN,,NaN,NaN,NaN,NaN,NaN,NaN,"",,NaN,4,0,4,0,1,3,200,0,200,0,1,199,,NaN,200,0,200,0,1,199,,NaN,,NaN,,NaN
NaN,NaN,NaN,NaN,NaN,"",NaN,NaN,"",NaN,NaN,1,1,30,3,81,90,94,0.05,0.1,0.15,0.15,81,90,94,0.05,0.1,0.15,0,4,0,0,94,94,428,14,0,0,0,30,428,14,186,0,,NaN,NaN,NaN,NaN,NaN,NaN,7,1,2020-11-10_09h25.37.286,Pirates_expt3,2020.1.2,Win32,60,NaN,NaN,NaN,NaN,NaN,NaN,NaN,,NaN,NaN,NaN,NaN,NaN,NaN,,NaN,NaN,NaN,NaN,NaN,NaN,"",,NaN,4,0,4,0,1,3,200,0,200,0,1,199,,NaN,200,0,200,0,1,199,space,4.73989,,NaN,,NaN
NaN,NaN,NaN,NaN,NaN,"",NaN,NaN,"",NaN,NaN,NaN,NaN,NaN,NaN,NaN,NaN,NaN,NaN,NaN,NaN,NaN,NaN,NaN,NaN,NaN,NaN,NaN,NaN,NaN,,NaN,NaN,NaN,NaN,NaN,,NaN,NaN,NaN,NaN,NaN,NaN,NaN,,NaN,NaN,NaN,NaN,NaN,NaN,7,1,2020-11-10_09h25.37.286,Pirates_expt3,2020.1.2,Win32,60,NaN,NaN,NaN,NaN,NaN,NaN,NaN,,NaN,NaN,NaN,NaN,NaN,NaN,,NaN,NaN,NaN,NaN,NaN,NaN,"",,NaN,NaN,NaN,NaN,NaN,NaN,NaN,NaN,NaN,NaN,NaN,NaN,NaN,,NaN,0,0,0,0,1,NaN,,NaN,,NaN,,NaN
NaN,NaN,NaN,NaN,NaN,"",NaN,NaN,"",NaN,NaN,1,1,30,3,81,90,90,0.05,0.1,0.15,0.15,81,90,90,0.05,0.1,0.15,3,3,0,0,90,90,428,14,s,1.06306,1,30,428,14,186,0,,NaN,NaN,NaN,NaN,NaN,NaN,7,1,2020-11-10_09h25.37.286,Pirates_expt3,2020.1.2,Win32,60,NaN,NaN,NaN,NaN,NaN,NaN,NaN,,NaN,NaN,NaN,NaN,NaN,NaN,,NaN,NaN,NaN,NaN,NaN,NaN,"",,NaN,4,0,4,0,1,3,200,0,200,0,1,199,,NaN,200,0,200,0,1,199,,NaN,,NaN,,NaN
NaN,NaN,NaN,NaN,NaN,"",NaN,NaN,"",NaN,NaN,1,1,28,3,82,91,91,0.05,0.1,0.15,0.15,82,91,91,0.05,0.1,0.15,0,4,0,0,91,90,428,15,0,0,0,28,428,15,185,7.382,,NaN,NaN,NaN,NaN,NaN,NaN,7,1,2020-11-10_09h25.37.286,Pirates_expt3,2020.1.2,Win32,60,NaN,NaN,NaN,NaN,NaN,NaN,NaN,,NaN,NaN,NaN,NaN,NaN,NaN,,NaN,NaN,NaN,NaN,NaN,NaN,"",,NaN,4,0,4,0,1,3,200,0,200,0,1,199,,NaN,200,0,200,0,1,199,s,1.06306,,NaN,,NaN
NaN,NaN,NaN,NaN,NaN,"",NaN,NaN,"",NaN,NaN,NaN,NaN,NaN,NaN,NaN,NaN,NaN,NaN,NaN,NaN,NaN,NaN,NaN,NaN,NaN,NaN,NaN,NaN,NaN,,NaN,NaN,NaN,NaN,NaN,,NaN,NaN,NaN,NaN,NaN,NaN,NaN,,NaN,NaN,NaN,NaN,NaN,NaN,7,1,2020-11-10_09h25.37.286,Pirates_expt3,2020.1.2,Win32,60,NaN,NaN,NaN,NaN,NaN,NaN,NaN,,NaN,NaN,NaN,NaN,NaN,NaN,,NaN,NaN,NaN,NaN,NaN,NaN,"",,NaN,NaN,NaN,NaN,NaN,NaN,NaN,4,0,4,0,1,NaN,,NaN,NaN,NaN,NaN,NaN,NaN,NaN,,NaN,,NaN,,NaN
NaN,NaN,NaN,NaN,NaN,"",NaN,NaN,"",NaN,NaN,1,1,28,1,82,91,91,0.05,0.1,0.15,0.05,82,91,91,0.05,0.1,0.15,1,1,f,1.98772,0,0,428,16,N/A,0,0,28,428,16,184,0,,NaN,NaN,NaN,NaN,NaN,NaN,7,1,2020-11-10_09h25.37.286,Pirates_expt3,2020.1.2,Win32,60,NaN,NaN,NaN,NaN,NaN,NaN,NaN,,NaN,NaN,NaN,NaN,NaN,NaN,,NaN,NaN,NaN,NaN,NaN,NaN,"",,NaN,4,0,4,0,1,3,200,0,200,0,1,199,,NaN,NaN,NaN,NaN,NaN,NaN,NaN,,NaN,,NaN,,NaN
NaN,NaN,NaN,NaN,NaN,"",NaN,NaN,"",NaN,NaN,1,1,28,1,83,92,92,0.05,0.1,0.15,0.05,83,92,92,0.05,0.1,0.15,0,2,0,0,0,0,428,16,N/A,0,0,28,428,16,184,0,,NaN,NaN,NaN,NaN,NaN,NaN,7,1,2020-11-10_09h25.37.286,Pirates_expt3,2020.1.2,Win32,60,NaN,NaN,NaN,NaN,NaN,NaN,NaN,,NaN,NaN,NaN,NaN,NaN,NaN,,NaN,NaN,NaN,NaN,NaN,NaN,"",,NaN,4,0,4,0,1,3,200,0,200,0,1,199,f,1.98772,NaN,NaN,NaN,NaN,NaN,NaN,,NaN,,NaN,,NaN
NaN,NaN,NaN,NaN,NaN,"",NaN,NaN,"",NaN,NaN,1,1,26,1,83,92,92,0.05,0.1,0.15,0.05,83,92,92,0.05,0.1,0.15,2,3,0,0,83,83,428,16,space,0.98397,0,26,428,16,184,0,,NaN,NaN,NaN,NaN,NaN,NaN,7,1,2020-11-10_09h25.37.286,Pirates_expt3,2020.1.2,Win32,60,NaN,NaN,NaN,NaN,NaN,NaN,NaN,,NaN,NaN,NaN,NaN,NaN,NaN,,NaN,NaN,NaN,NaN,NaN,NaN,"",,NaN,4,0,4,0,1,3,200,0,200,0,1,199,,NaN,200,0,200,0,1,199,,NaN,,NaN,,NaN
NaN,NaN,NaN,NaN,NaN,"",NaN,NaN,"",NaN,NaN,1,1,30,1,83,93,93,0.05,0.1,0.15,0.05,83,93,93,0.05,0.1,0.15,0,4,0,0,83,83,511,17,0,0,0,30,511,17,183,0,,NaN,NaN,NaN,NaN,NaN,NaN,7,1,2020-11-10_09h25.37.286,Pirates_expt3,2020.1.2,Win32,60,NaN,NaN,NaN,NaN,NaN,NaN,NaN,,NaN,NaN,NaN,NaN,NaN,NaN,,NaN,NaN,NaN,NaN,NaN,NaN,"",,NaN,4,0,4,0,1,3,200,0,200,0,1,199,,NaN,200,0,200,0,1,199,space,0.98397,,NaN,,NaN
NaN,NaN,NaN,NaN,NaN,"",NaN,NaN,"",NaN,NaN,NaN,NaN,NaN,NaN,NaN,NaN,NaN,NaN,NaN,NaN,NaN,NaN,NaN,NaN,NaN,NaN,NaN,NaN,NaN,,NaN,NaN,NaN,NaN,NaN,,NaN,NaN,NaN,NaN,NaN,NaN,NaN,,NaN,NaN,NaN,NaN,NaN,NaN,7,1,2020-11-10_09h25.37.286,Pirates_expt3,2020.1.2,Win32,60,NaN,NaN,NaN,NaN,NaN,NaN,NaN,,NaN,NaN,NaN,NaN,NaN,NaN,,NaN,NaN,NaN,NaN,NaN,NaN,"",,NaN,NaN,NaN,NaN,NaN,NaN,NaN,NaN,NaN,NaN,NaN,NaN,NaN,,NaN,0,0,0,0,1,NaN,,NaN,,NaN,,NaN
NaN,NaN,NaN,NaN,NaN,"",NaN,NaN,"",NaN,NaN,1,1,30,1,79,93,93,0.05,0.1,0.15,0.05,79,93,93,0.05,0.1,0.15,3,3,0,0,79,79,511,17,s,3.084645,1,30,511,17,183,0,,NaN,NaN,NaN,NaN,NaN,NaN,7,1,2020-11-10_09h25.37.286,Pirates_expt3,2020.1.2,Win32,60,NaN,NaN,NaN,NaN,NaN,NaN,NaN,,NaN,NaN,NaN,NaN,NaN,NaN,,NaN,NaN,NaN,NaN,NaN,NaN,"",,NaN,4,0,4,0,1,3,200,0,200,0,1,199,,NaN,200,0,200,0,1,199,,NaN,,NaN,,NaN
NaN,NaN,NaN,NaN,NaN,"",NaN,NaN,"",NaN,NaN,1,1,28,1,80,93,94,0.05,0.1,0.15,0.05,80,93,94,0.05,0.1,0.15,0,4,0,0,80,79,511,18,0,0,0,28,511,18,182,5.633,,NaN,NaN,NaN,NaN,NaN,NaN,7,1,2020-11-10_09h25.37.286,Pirates_expt3,2020.1.2,Win32,60,NaN,NaN,NaN,NaN,NaN,NaN,NaN,,NaN,NaN,NaN,NaN,NaN,NaN,,NaN,NaN,NaN,NaN,NaN,NaN,"",,NaN,4,0,4,0,1,3,200,0,200,0,1,199,,NaN,200,0,200,0,1,199,s,3.084645,,NaN,,NaN
NaN,NaN,NaN,NaN,NaN,"",NaN,NaN,"",NaN,NaN,NaN,NaN,NaN,NaN,NaN,NaN,NaN,NaN,NaN,NaN,NaN,NaN,NaN,NaN,NaN,NaN,NaN,NaN,NaN,,NaN,NaN,NaN,NaN,NaN,,NaN,NaN,NaN,NaN,NaN,NaN,NaN,,NaN,NaN,NaN,NaN,NaN,NaN,7,1,2020-11-10_09h25.37.286,Pirates_expt3,2020.1.2,Win32,60,NaN,NaN,NaN,NaN,NaN,NaN,NaN,,NaN,NaN,NaN,NaN,NaN,NaN,,NaN,NaN,NaN,NaN,NaN,NaN,"",,NaN,NaN,NaN,NaN,NaN,NaN,NaN,5,0,5,0,1,NaN,,NaN,NaN,NaN,NaN,NaN,NaN,NaN,,NaN,,NaN,,NaN
NaN,NaN,NaN,NaN,NaN,"",NaN,NaN,"",NaN,NaN,1,1,28,3,80,93,94,0.05,0.1,0.15,0.15,80,93,94,0.05,0.1,0.15,1,1,k,1.583765,0,0,511,19,N/A,0,0,28,511,19,181,0,,NaN,NaN,NaN,NaN,NaN,NaN,7,1,2020-11-10_09h25.37.286,Pirates_expt3,2020.1.2,Win32,60,NaN,NaN,NaN,NaN,NaN,NaN,NaN,,NaN,NaN,NaN,NaN,NaN,NaN,,NaN,NaN,NaN,NaN,NaN,NaN,"",,NaN,4,0,4,0,1,3,200,0,200,0,1,199,,NaN,NaN,NaN,NaN,NaN,NaN,NaN,,NaN,,NaN,,NaN
NaN,NaN,NaN,NaN,NaN,"",NaN,NaN,"",NaN,NaN,1,1,28,3,81,94,95,0.05,0.1,0.15,0.15,81,94,95,0.05,0.1,0.15,0,2,0,0,0,0,511,19,N/A,0,0,28,511,19,181,0,,NaN,NaN,NaN,NaN,NaN,NaN,7,1,2020-11-10_09h25.37.286,Pirates_expt3,2020.1.2,Win32,60,NaN,NaN,NaN,NaN,NaN,NaN,NaN,,NaN,NaN,NaN,NaN,NaN,NaN,,NaN,NaN,NaN,NaN,NaN,NaN,"",,NaN,4,0,4,0,1,3,200,0,200,0,1,199,k,1.583765,NaN,NaN,NaN,NaN,NaN,NaN,,NaN,,NaN,,NaN
NaN,NaN,NaN,NaN,NaN,"",NaN,NaN,"",NaN,NaN,1,1,26,3,81,94,95,0.05,0.1,0.15,0.15,81,94,95,0.05,0.1,0.15,2,3,0,0,95,95,511,19,space,1.443655,0,26,511,19,181,0,,NaN,NaN,NaN,NaN,NaN,NaN,7,1,2020-11-10_09h25.37.286,Pirates_expt3,2020.1.2,Win32,60,NaN,NaN,NaN,NaN,NaN,NaN,NaN,,NaN,NaN,NaN,NaN,NaN,NaN,,NaN,NaN,NaN,NaN,NaN,NaN,"",,NaN,4,0,4,0,1,3,200,0,200,0,1,199,,NaN,200,0,200,0,1,199,,NaN,,NaN,,NaN
NaN,NaN,NaN,NaN,NaN,"",NaN,NaN,"",NaN,NaN,1,1,30,3,82,95,95,0.05,0.1,0.15,0.15,82,95,95,0.05,0.1,0.15,0,4,0,0,95,95,607,20,0,0,0,30,607,20,180,0,,NaN,NaN,NaN,NaN,NaN,NaN,7,1,2020-11-10_09h25.37.286,Pirates_expt3,2020.1.2,Win32,60,NaN,NaN,NaN,NaN,NaN,NaN,NaN,,NaN,NaN,NaN,NaN,NaN,NaN,,NaN,NaN,NaN,NaN,NaN,NaN,"",,NaN,4,0,4,0,1,3,200,0,200,0,1,199,,NaN,200,0,200,0,1,199,space,1.443655,,NaN,,NaN
NaN,NaN,NaN,NaN,NaN,"",NaN,NaN,"",NaN,NaN,NaN,NaN,NaN,NaN,NaN,NaN,NaN,NaN,NaN,NaN,NaN,NaN,NaN,NaN,NaN,NaN,NaN,NaN,NaN,,NaN,NaN,NaN,NaN,NaN,,NaN,NaN,NaN,NaN,NaN,NaN,NaN,,NaN,NaN,NaN,NaN,NaN,NaN,7,1,2020-11-10_09h25.37.286,Pirates_expt3,2020.1.2,Win32,60,NaN,NaN,NaN,NaN,NaN,NaN,NaN,,NaN,NaN,NaN,NaN,NaN,NaN,,NaN,NaN,NaN,NaN,NaN,NaN,"",,NaN,NaN,NaN,NaN,NaN,NaN,NaN,NaN,NaN,NaN,NaN,NaN,NaN,,NaN,0,0,0,0,1,NaN,,NaN,,NaN,,NaN
NaN,NaN,NaN,NaN,NaN,"",NaN,NaN,"",NaN,NaN,1,1,30,3,82,95,90,0.05,0.1,0.15,0.15,82,95,90,0.05,0.1,0.15,3,3,0,0,90,90,607,20,s,0.103865,1,30,607,20,180,0,,NaN,NaN,NaN,NaN,NaN,NaN,7,1,2020-11-10_09h25.37.286,Pirates_expt3,2020.1.2,Win32,60,NaN,NaN,NaN,NaN,NaN,NaN,NaN,,NaN,NaN,NaN,NaN,NaN,NaN,,NaN,NaN,NaN,NaN,NaN,NaN,"",,NaN,4,0,4,0,1,3,200,0,200,0,1,199,,NaN,200,0,200,0,1,199,,NaN,,NaN,,NaN
NaN,NaN,NaN,NaN,NaN,"",NaN,NaN,"",NaN,NaN,1,1,28,3,83,95,92,0.05,0.1,0.15,0.15,83,95,92,0.05,0.1,0.15,0,4,0,0,92,90,607,21,0,0,0,28,607,21,179,3.115,,NaN,NaN,NaN,NaN,NaN,NaN,7,1,2020-11-10_09h25.37.286,Pirates_expt3,2020.1.2,Win32,60,NaN,NaN,NaN,NaN,NaN,NaN,NaN,,NaN,NaN,NaN,NaN,NaN,NaN,,NaN,NaN,NaN,NaN,NaN,NaN,"",,NaN,4,0,4,0,1,3,200,0,200,0,1,199,,NaN,200,0,200,0,1,199,s,0.103865,,NaN,,NaN
NaN,NaN,NaN,NaN,NaN,"",NaN,NaN,"",NaN,NaN,NaN,NaN,NaN,NaN,NaN,NaN,NaN,NaN,NaN,NaN,NaN,NaN,NaN,NaN,NaN,NaN,NaN,NaN,NaN,,NaN,NaN,NaN,NaN,NaN,,NaN,NaN,NaN,NaN,NaN,NaN,NaN,,NaN,NaN,NaN,NaN,NaN,NaN,7,1,2020-11-10_09h25.37.286,Pirates_expt3,2020.1.2,Win32,60,NaN,NaN,NaN,NaN,NaN,NaN,NaN,,NaN,NaN,NaN,NaN,NaN,NaN,,NaN,NaN,NaN,NaN,NaN,NaN,"",,NaN,NaN,NaN,NaN,NaN,NaN,NaN,6,0,6,0,1,NaN,,NaN,NaN,NaN,NaN,NaN,NaN,NaN,,NaN,,NaN,,NaN
NaN,NaN,NaN,NaN,NaN,"",NaN,NaN,"",NaN,NaN,1,1,28,2,83,95,92,0.05,0.1,0.15,0.1,83,95,92,0.05,0.1,0.15,1,1,j,1.185095,0,0,607,22,N/A,0,0,28,607,22,178,0,,NaN,NaN,NaN,NaN,NaN,NaN,7,1,2020-11-10_09h25.37.286,Pirates_expt3,2020.1.2,Win32,60,NaN,NaN,NaN,NaN,NaN,NaN,NaN,,NaN,NaN,NaN,NaN,NaN,NaN,,NaN,NaN,NaN,NaN,NaN,NaN,"",,NaN,4,0,4,0,1,3,200,0,200,0,1,199,,NaN,NaN,NaN,NaN,NaN,NaN,NaN,,NaN,,NaN,,NaN
NaN,NaN,NaN,NaN,NaN,"",NaN,NaN,"",NaN,NaN,1,1,28,2,84,96,93,0.05,0.1,0.15,0.1,84,96,93,0.05,0.1,0.15,0,2,0,0,0,0,607,22,N/A,0,0,28,607,22,178,0,,NaN,NaN,NaN,NaN,NaN,NaN,7,1,2020-11-10_09h25.37.286,Pirates_expt3,2020.1.2,Win32,60,NaN,NaN,NaN,NaN,NaN,NaN,NaN,,NaN,NaN,NaN,NaN,NaN,NaN,,NaN,NaN,NaN,NaN,NaN,NaN,"",,NaN,4,0,4,0,1,3,200,0,200,0,1,199,j,1.185095,NaN,NaN,NaN,NaN,NaN,NaN,,NaN,,NaN,,NaN
NaN,NaN,NaN,NaN,NaN,"",NaN,NaN,"",NaN,NaN,1,1,27,2,84,96,93,0.05,0.1,0.15,0.1,84,96,93,0.05,0.1,0.15,2,3,0,0,96,96,607,22,space,1.938445,0,27,607,22,178,0,,NaN,NaN,NaN,NaN,NaN,NaN,7,1,2020-11-10_09h25.37.286,Pirates_expt3,2020.1.2,Win32,60,NaN,NaN,NaN,NaN,NaN,NaN,NaN,,NaN,NaN,NaN,NaN,NaN,NaN,,NaN,NaN,NaN,NaN,NaN,NaN,"",,NaN,4,0,4,0,1,3,200,0,200,0,1,199,,NaN,200,0,200,0,1,199,,NaN,,NaN,,NaN
NaN,NaN,NaN,NaN,NaN,"",NaN,NaN,"",NaN,NaN,1,1,30,2,84,96,94,0.05,0.1,0.15,0.1,84,96,94,0.05,0.1,0.15,0,4,0,0,96,96,703,23,0,0,0,30,703,23,177,0,,NaN,NaN,NaN,NaN,NaN,NaN,7,1,2020-11-10_09h25.37.286,Pirates_expt3,2020.1.2,Win32,60,NaN,NaN,NaN,NaN,NaN,NaN,NaN,,NaN,NaN,NaN,NaN,NaN,NaN,,NaN,NaN,NaN,NaN,NaN,NaN,"",,NaN,4,0,4,0,1,3,200,0,200,0,1,199,,NaN,200,0,200,0,1,199,space,1.938445,,NaN,,NaN
NaN,NaN,NaN,NaN,NaN,"",NaN,NaN,"",NaN,NaN,NaN,NaN,NaN,NaN,NaN,NaN,NaN,NaN,NaN,NaN,NaN,NaN,NaN,NaN,NaN,NaN,NaN,NaN,NaN,,NaN,NaN,NaN,NaN,NaN,,NaN,NaN,NaN,NaN,NaN,NaN,NaN,,NaN,NaN,NaN,NaN,NaN,NaN,7,1,2020-11-10_09h25.37.286,Pirates_expt3,2020.1.2,Win32,60,NaN,NaN,NaN,NaN,NaN,NaN,NaN,,NaN,NaN,NaN,NaN,NaN,NaN,,NaN,NaN,NaN,NaN,NaN,NaN,"",,NaN,NaN,NaN,NaN,NaN,NaN,NaN,NaN,NaN,NaN,NaN,NaN,NaN,,NaN,0,0,0,0,1,NaN,,NaN,,NaN,,NaN
NaN,NaN,NaN,NaN,NaN,"",NaN,NaN,"",NaN,NaN,1,1,30,2,84,91,94,0.05,0.1,0.15,0.1,84,91,94,0.05,0.1,0.15,3,3,0,0,91,91,703,23,s,2.425215,1,30,703,23,177,0,,NaN,NaN,NaN,NaN,NaN,NaN,7,1,2020-11-10_09h25.37.286,Pirates_expt3,2020.1.2,Win32,60,NaN,NaN,NaN,NaN,NaN,NaN,NaN,,NaN,NaN,NaN,NaN,NaN,NaN,,NaN,NaN,NaN,NaN,NaN,NaN,"",,NaN,4,0,4,0,1,3,200,0,200,0,1,199,,NaN,200,0,200,0,1,199,,NaN,,NaN,,NaN
NaN,NaN,NaN,NaN,NaN,"",NaN,NaN,"",NaN,NaN,1,1,29,2,85,92,95,0.05,0.1,0.15,0.1,85,92,95,0.05,0.1,0.15,0,4,0,0,92,91,703,24,0,0,0,29,703,24,176,5.95,,NaN,NaN,NaN,NaN,NaN,NaN,7,1,2020-11-10_09h25.37.286,Pirates_expt3,2020.1.2,Win32,60,NaN,NaN,NaN,NaN,NaN,NaN,NaN,,NaN,NaN,NaN,NaN,NaN,NaN,,NaN,NaN,NaN,NaN,NaN,NaN,"",,NaN,4,0,4,0,1,3,200,0,200,0,1,199,,NaN,200,0,200,0,1,199,s,2.425215,,NaN,,NaN
NaN,NaN,NaN,NaN,NaN,"",NaN,NaN,"",NaN,NaN,NaN,NaN,NaN,NaN,NaN,NaN,NaN,NaN,NaN,NaN,NaN,NaN,NaN,NaN,NaN,NaN,NaN,NaN,NaN,,NaN,NaN,NaN,NaN,NaN,,NaN,NaN,NaN,NaN,NaN,NaN,NaN,,NaN,NaN,NaN,NaN,NaN,NaN,7,1,2020-11-10_09h25.37.286,Pirates_expt3,2020.1.2,Win32,60,NaN,NaN,NaN,NaN,NaN,NaN,NaN,,NaN,NaN,NaN,NaN,NaN,NaN,,NaN,NaN,NaN,NaN,NaN,NaN,"",,NaN,NaN,NaN,NaN,NaN,NaN,NaN,7,0,7,0,1,NaN,,NaN,NaN,NaN,NaN,NaN,NaN,NaN,,NaN,,NaN,,NaN
NaN,NaN,NaN,NaN,NaN,"",NaN,NaN,"",NaN,NaN,1,1,29,3,85,92,95,0.05,0.1,0.15,0.15,85,92,95,0.05,0.1,0.15,1,1,k,1.665405,0,0,703,25,N/A,0,0,29,703,25,175,0,,NaN,NaN,NaN,NaN,NaN,NaN,7,1,2020-11-10_09h25.37.286,Pirates_expt3,2020.1.2,Win32,60,NaN,NaN,NaN,NaN,NaN,NaN,NaN,,NaN,NaN,NaN,NaN,NaN,NaN,,NaN,NaN,NaN,NaN,NaN,NaN,"",,NaN,4,0,4,0,1,3,200,0,200,0,1,199,,NaN,NaN,NaN,NaN,NaN,NaN,NaN,,NaN,,NaN,,NaN
NaN,NaN,NaN,NaN,NaN,"",NaN,NaN,"",NaN,NaN,1,1,29,3,86,92,95,0.05,0.1,0.15,0.15,86,92,95,0.05,0.1,0.15,0,2,0,0,0,0,703,25,N/A,0,0,29,703,25,175,0,,NaN,NaN,NaN,NaN,NaN,NaN,7,1,2020-11-10_09h25.37.286,Pirates_expt3,2020.1.2,Win32,60,NaN,NaN,NaN,NaN,NaN,NaN,NaN,,NaN,NaN,NaN,NaN,NaN,NaN,,NaN,NaN,NaN,NaN,NaN,NaN,"",,NaN,4,0,4,0,1,3,200,0,200,0,1,199,k,1.665405,NaN,NaN,NaN,NaN,NaN,NaN,,NaN,,NaN,,NaN
NaN,NaN,NaN,NaN,NaN,"",NaN,NaN,"",NaN,NaN,1,1,28,3,86,92,95,0.05,0.1,0.15,0.15,86,92,95,0.05,0.1,0.15,2,3,0,0,95,95,703,25,space,1.811795,0,28,703,25,175,0,,NaN,NaN,NaN,NaN,NaN,NaN,7,1,2020-11-10_09h25.37.286,Pirates_expt3,2020.1.2,Win32,60,NaN,NaN,NaN,NaN,NaN,NaN,NaN,,NaN,NaN,NaN,NaN,NaN,NaN,,NaN,NaN,NaN,NaN,NaN,NaN,"",,NaN,4,0,4,0,1,3,200,0,200,0,1,199,,NaN,200,0,200,0,1,199,,NaN,,NaN,,NaN
NaN,NaN,NaN,NaN,NaN,"",NaN,NaN,"",NaN,NaN,1,1,30,3,87,93,95,0.05,0.1,0.15,0.15,87,93,95,0.05,0.1,0.15,0,4,0,0,95,95,799,26,0,0,0,30,799,26,174,0,,NaN,NaN,NaN,NaN,NaN,NaN,7,1,2020-11-10_09h25.37.286,Pirates_expt3,2020.1.2,Win32,60,NaN,NaN,NaN,NaN,NaN,NaN,NaN,,NaN,NaN,NaN,NaN,NaN,NaN,,NaN,NaN,NaN,NaN,NaN,NaN,"",,NaN,4,0,4,0,1,3,200,0,200,0,1,199,,NaN,200,0,200,0,1,199,space,1.811795,,NaN,,NaN
NaN,NaN,NaN,NaN,NaN,"",NaN,NaN,"",NaN,NaN,NaN,NaN,NaN,NaN,NaN,NaN,NaN,NaN,NaN,NaN,NaN,NaN,NaN,NaN,NaN,NaN,NaN,NaN,NaN,,NaN,NaN,NaN,NaN,NaN,,NaN,NaN,NaN,NaN,NaN,NaN,NaN,,NaN,NaN,NaN,NaN,NaN,NaN,7,1,2020-11-10_09h25.37.286,Pirates_expt3,2020.1.2,Win32,60,NaN,NaN,NaN,NaN,NaN,NaN,NaN,,NaN,NaN,NaN,NaN,NaN,NaN,,NaN,NaN,NaN,NaN,NaN,NaN,"",,NaN,NaN,NaN,NaN,NaN,NaN,NaN,NaN,NaN,NaN,NaN,NaN,NaN,,NaN,0,0,0,0,1,NaN,,NaN,,NaN,,NaN
NaN,NaN,NaN,NaN,NaN,"",NaN,NaN,"",NaN,NaN,1,1,30,3,87,93,91,0.05,0.1,0.15,0.15,87,93,91,0.05,0.1,0.15,2,3,0,0,91,91,799,26,space,2.199065,0,30,799,26,174,0,,NaN,NaN,NaN,NaN,NaN,NaN,7,1,2020-11-10_09h25.37.286,Pirates_expt3,2020.1.2,Win32,60,NaN,NaN,NaN,NaN,NaN,NaN,NaN,,NaN,NaN,NaN,NaN,NaN,NaN,,NaN,NaN,NaN,NaN,NaN,NaN,"",,NaN,4,0,4,0,1,3,200,0,200,0,1,199,,NaN,200,0,200,0,1,199,,NaN,,NaN,,NaN
NaN,NaN,NaN,NaN,NaN,"",NaN,NaN,"",NaN,NaN,1,1,32,3,87,94,91,0.05,0.1,0.15,0.15,87,94,91,0.05,0.1,0.15,0,4,0,0,91,91,890,27,0,0,0,32,890,27,173,0,,NaN,NaN,NaN,NaN,NaN,NaN,7,1,2020-11-10_09h25.37.286,Pirates_expt3,2020.1.2,Win32,60,NaN,NaN,NaN,NaN,NaN,NaN,NaN,,NaN,NaN,NaN,NaN,NaN,NaN,,NaN,NaN,NaN,NaN,NaN,NaN,"",,NaN,4,0,4,0,1,3,200,0,200,0,1,199,,NaN,200,0,200,0,1,199,space,2.199065,,NaN,,NaN
NaN,NaN,NaN,NaN,NaN,"",NaN,NaN,"",NaN,NaN,NaN,NaN,NaN,NaN,NaN,NaN,NaN,NaN,NaN,NaN,NaN,NaN,NaN,NaN,NaN,NaN,NaN,NaN,NaN,,NaN,NaN,NaN,NaN,NaN,,NaN,NaN,NaN,NaN,NaN,NaN,NaN,,NaN,NaN,NaN,NaN,NaN,NaN,7,1,2020-11-10_09h25.37.286,Pirates_expt3,2020.1.2,Win32,60,NaN,NaN,NaN,NaN,NaN,NaN,NaN,,NaN,NaN,NaN,NaN,NaN,NaN,,NaN,NaN,NaN,NaN,NaN,NaN,"",,NaN,NaN,NaN,NaN,NaN,NaN,NaN,NaN,NaN,NaN,NaN,NaN,NaN,,NaN,1,0,1,0,1,NaN,,NaN,,NaN,,NaN
NaN,NaN,NaN,NaN,NaN,"",NaN,NaN,"",NaN,NaN,1,1,32,3,87,94,82,0.05,0.1,0.15,0.15,87,94,82,0.05,0.1,0.15,2,3,0,0,82,82,890,27,space,0.39594,0,32,890,27,173,0,,NaN,NaN,NaN,NaN,NaN,NaN,7,1,2020-11-10_09h25.37.286,Pirates_expt3,2020.1.2,Win32,60,NaN,NaN,NaN,NaN,NaN,NaN,NaN,,NaN,NaN,NaN,NaN,NaN,NaN,,NaN,NaN,NaN,NaN,NaN,NaN,"",,NaN,4,0,4,0,1,3,200,0,200,0,1,199,,NaN,200,0,200,0,1,199,,NaN,,NaN,,NaN
NaN,NaN,NaN,NaN,NaN,"",NaN,NaN,"",NaN,NaN,1,1,34,3,88,94,82,0.05,0.1,0.15,0.15,88,94,82,0.05,0.1,0.15,0,4,0,0,82,82,972,28,0,0,0,34,972,28,172,0,,NaN,NaN,NaN,NaN,NaN,NaN,7,1,2020-11-10_09h25.37.286,Pirates_expt3,2020.1.2,Win32,60,NaN,NaN,NaN,NaN,NaN,NaN,NaN,,NaN,NaN,NaN,NaN,NaN,NaN,,NaN,NaN,NaN,NaN,NaN,NaN,"",,NaN,4,0,4,0,1,3,200,0,200,0,1,199,,NaN,200,0,200,0,1,199,space,0.39594,,NaN,,NaN
NaN,NaN,NaN,NaN,NaN,"",NaN,NaN,"",NaN,NaN,NaN,NaN,NaN,NaN,NaN,NaN,NaN,NaN,NaN,NaN,NaN,NaN,NaN,NaN,NaN,NaN,NaN,NaN,NaN,,NaN,NaN,NaN,NaN,NaN,,NaN,NaN,NaN,NaN,NaN,NaN,NaN,,NaN,NaN,NaN,NaN,NaN,NaN,7,1,2020-11-10_09h25.37.286,Pirates_expt3,2020.1.2,Win32,60,NaN,NaN,NaN,NaN,NaN,NaN,NaN,,NaN,NaN,NaN,NaN,NaN,NaN,,NaN,NaN,NaN,NaN,NaN,NaN,"",,NaN,NaN,NaN,NaN,NaN,NaN,NaN,NaN,NaN,NaN,NaN,NaN,NaN,,NaN,2,0,2,0,1,NaN,,NaN,,NaN,,NaN
NaN,NaN,NaN,NaN,NaN,"",NaN,NaN,"",NaN,NaN,1,1,34,3,88,94,70,0.05,0.1,0.15,0.15,88,94,70,0.05,0.1,0.15,2,3,0,0,70,70,972,28,space,1.008185,0,34,972,28,172,0,,NaN,NaN,NaN,NaN,NaN,NaN,7,1,2020-11-10_09h25.37.286,Pirates_expt3,2020.1.2,Win32,60,NaN,NaN,NaN,NaN,NaN,NaN,NaN,,NaN,NaN,NaN,NaN,NaN,NaN,,NaN,NaN,NaN,NaN,NaN,NaN,"",,NaN,4,0,4,0,1,3,200,0,200,0,1,199,,NaN,200,0,200,0,1,199,,NaN,,NaN,,NaN
NaN,NaN,NaN,NaN,NaN,"",NaN,NaN,"",NaN,NaN,1,1,35,3,88,95,70,0.05,0.1,0.15,0.15,88,95,70,0.05,0.1,0.15,0,4,0,0,70,70,1043,29,0,0,0,35,1043,29,171,0,,NaN,NaN,NaN,NaN,NaN,NaN,7,1,2020-11-10_09h25.37.286,Pirates_expt3,2020.1.2,Win32,60,NaN,NaN,NaN,NaN,NaN,NaN,NaN,,NaN,NaN,NaN,NaN,NaN,NaN,,NaN,NaN,NaN,NaN,NaN,NaN,"",,NaN,4,0,4,0,1,3,200,0,200,0,1,199,,NaN,200,0,200,0,1,199,space,1.008185,,NaN,,NaN
NaN,NaN,NaN,NaN,NaN,"",NaN,NaN,"",NaN,NaN,NaN,NaN,NaN,NaN,NaN,NaN,NaN,NaN,NaN,NaN,NaN,NaN,NaN,NaN,NaN,NaN,NaN,NaN,NaN,,NaN,NaN,NaN,NaN,NaN,,NaN,NaN,NaN,NaN,NaN,NaN,NaN,,NaN,NaN,NaN,NaN,NaN,NaN,7,1,2020-11-10_09h25.37.286,Pirates_expt3,2020.1.2,Win32,60,NaN,NaN,NaN,NaN,NaN,NaN,NaN,,NaN,NaN,NaN,NaN,NaN,NaN,,NaN,NaN,NaN,NaN,NaN,NaN,"",,NaN,NaN,NaN,NaN,NaN,NaN,NaN,NaN,NaN,NaN,NaN,NaN,NaN,,NaN,3,0,3,0,1,NaN,,NaN,,NaN,,NaN
NaN,NaN,NaN,NaN,NaN,"",NaN,NaN,"",NaN,NaN,1,1,35,3,88,95,57,0.05,0.1,0.15,0.15,88,95,57,0.05,0.1,0.15,2,3,0,0,57,57,1043,29,space,0.824505,0,35,1043,29,171,0,,NaN,NaN,NaN,NaN,NaN,NaN,7,1,2020-11-10_09h25.37.286,Pirates_expt3,2020.1.2,Win32,60,NaN,NaN,NaN,NaN,NaN,NaN,NaN,,NaN,NaN,NaN,NaN,NaN,NaN,,NaN,NaN,NaN,NaN,NaN,NaN,"",,NaN,4,0,4,0,1,3,200,0,200,0,1,199,,NaN,200,0,200,0,1,199,,NaN,,NaN,,NaN
NaN,NaN,NaN,NaN,NaN,"",NaN,NaN,"",NaN,NaN,1,1,36,3,89,95,57,0.05,0.1,0.15,0.15,89,95,57,0.05,0.1,0.15,0,4,0,0,57,57,1100,30,0,0,0,36,1100,30,170,0,,NaN,NaN,NaN,NaN,NaN,NaN,7,1,2020-11-10_09h25.37.286,Pirates_expt3,2020.1.2,Win32,60,NaN,NaN,NaN,NaN,NaN,NaN,NaN,,NaN,NaN,NaN,NaN,NaN,NaN,,NaN,NaN,NaN,NaN,NaN,NaN,"",,NaN,4,0,4,0,1,3,200,0,200,0,1,199,,NaN,200,0,200,0,1,199,space,0.824505,,NaN,,NaN
NaN,NaN,NaN,NaN,NaN,"",NaN,NaN,"",NaN,NaN,NaN,NaN,NaN,NaN,NaN,NaN,NaN,NaN,NaN,NaN,NaN,NaN,NaN,NaN,NaN,NaN,NaN,NaN,NaN,,NaN,NaN,NaN,NaN,NaN,,NaN,NaN,NaN,NaN,NaN,NaN,NaN,,NaN,NaN,NaN,NaN,NaN,NaN,7,1,2020-11-10_09h25.37.286,Pirates_expt3,2020.1.2,Win32,60,NaN,NaN,NaN,NaN,NaN,NaN,NaN,,NaN,NaN,NaN,NaN,NaN,NaN,,NaN,NaN,NaN,NaN,NaN,NaN,"",,NaN,NaN,NaN,NaN,NaN,NaN,NaN,NaN,NaN,NaN,NaN,NaN,NaN,,NaN,4,0,4,0,1,NaN,,NaN,,NaN,,NaN
NaN,NaN,NaN,NaN,NaN,"",NaN,NaN,"",NaN,NaN,1,1,36,3,89,95,44,0.05,0.1,0.15,0.15,89,95,44,0.05,0.1,0.15,2,3,0,0,44,44,1100,30,space,0.500825,0,36,1100,30,170,0,,NaN,NaN,NaN,NaN,NaN,NaN,7,1,2020-11-10_09h25.37.286,Pirates_expt3,2020.1.2,Win32,60,NaN,NaN,NaN,NaN,NaN,NaN,NaN,,NaN,NaN,NaN,NaN,NaN,NaN,,NaN,NaN,NaN,NaN,NaN,NaN,"",,NaN,4,0,4,0,1,3,200,0,200,0,1,199,,NaN,200,0,200,0,1,199,,NaN,,NaN,,NaN
NaN,NaN,NaN,NaN,NaN,"",NaN,NaN,"",NaN,NaN,1,1,36,3,89,96,44,0.05,0.1,0.15,0.15,89,96,44,0.05,0.1,0.15,0,4,0,0,44,44,1145,31,0,0,0,36,1145,31,169,0,,NaN,NaN,NaN,NaN,NaN,NaN,7,1,2020-11-10_09h25.37.286,Pirates_expt3,2020.1.2,Win32,60,NaN,NaN,NaN,NaN,NaN,NaN,NaN,,NaN,NaN,NaN,NaN,NaN,NaN,,NaN,NaN,NaN,NaN,NaN,NaN,"",,NaN,4,0,4,0,1,3,200,0,200,0,1,199,,NaN,200,0,200,0,1,199,space,0.500825,,NaN,,NaN
NaN,NaN,NaN,NaN,NaN,"",NaN,NaN,"",NaN,NaN,NaN,NaN,NaN,NaN,NaN,NaN,NaN,NaN,NaN,NaN,NaN,NaN,NaN,NaN,NaN,NaN,NaN,NaN,NaN,,NaN,NaN,NaN,NaN,NaN,,NaN,NaN,NaN,NaN,NaN,NaN,NaN,,NaN,NaN,NaN,NaN,NaN,NaN,7,1,2020-11-10_09h25.37.286,Pirates_expt3,2020.1.2,Win32,60,NaN,NaN,NaN,NaN,NaN,NaN,NaN,,NaN,NaN,NaN,NaN,NaN,NaN,,NaN,NaN,NaN,NaN,NaN,NaN,"",,NaN,NaN,NaN,NaN,NaN,NaN,NaN,NaN,NaN,NaN,NaN,NaN,NaN,,NaN,5,0,5,0,1,NaN,,NaN,,NaN,,NaN
NaN,NaN,NaN,NaN,NaN,"",NaN,NaN,"",NaN,NaN,1,1,36,3,89,96,32,0.05,0.1,0.15,0.15,89,96,32,0.05,0.1,0.15,3,3,0,0,32,32,1145,31,s,0.95257,6,36,1145,31,169,0,,NaN,NaN,NaN,NaN,NaN,NaN,7,1,2020-11-10_09h25.37.286,Pirates_expt3,2020.1.2,Win32,60,NaN,NaN,NaN,NaN,NaN,NaN,NaN,,NaN,NaN,NaN,NaN,NaN,NaN,,NaN,NaN,NaN,NaN,NaN,NaN,"",,NaN,4,0,4,0,1,3,200,0,200,0,1,199,,NaN,200,0,200,0,1,199,,NaN,,NaN,,NaN
NaN,NaN,NaN,NaN,NaN,"",NaN,NaN,"",NaN,NaN,1,1,35,3,90,96,42,0.05,0.1,0.15,0.15,90,96,42,0.05,0.1,0.15,0,4,0,0,42,32,1145,32,0,0,0,35,1145,32,168,16.962,,NaN,NaN,NaN,NaN,NaN,NaN,7,1,2020-11-10_09h25.37.286,Pirates_expt3,2020.1.2,Win32,60,NaN,NaN,NaN,NaN,NaN,NaN,NaN,,NaN,NaN,NaN,NaN,NaN,NaN,,NaN,NaN,NaN,NaN,NaN,NaN,"",,NaN,4,0,4,0,1,3,200,0,200,0,1,199,,NaN,200,0,200,0,1,199,s,0.95257,,NaN,,NaN
NaN,NaN,NaN,NaN,NaN,"",NaN,NaN,"",NaN,NaN,NaN,NaN,NaN,NaN,NaN,NaN,NaN,NaN,NaN,NaN,NaN,NaN,NaN,NaN,NaN,NaN,NaN,NaN,NaN,,NaN,NaN,NaN,NaN,NaN,,NaN,NaN,NaN,NaN,NaN,NaN,NaN,,NaN,NaN,NaN,NaN,NaN,NaN,7,1,2020-11-10_09h25.37.286,Pirates_expt3,2020.1.2,Win32,60,NaN,NaN,NaN,NaN,NaN,NaN,NaN,,NaN,NaN,NaN,NaN,NaN,NaN,,NaN,NaN,NaN,NaN,NaN,NaN,"",,NaN,NaN,NaN,NaN,NaN,NaN,NaN,8,0,8,0,1,NaN,,NaN,NaN,NaN,NaN,NaN,NaN,NaN,,NaN,,NaN,,NaN
NaN,NaN,NaN,NaN,NaN,"",NaN,NaN,"",NaN,NaN,1,1,35,1,90,96,42,0.05,0.1,0.15,0.05,90,96,42,0.05,0.1,0.15,1,1,f,2.02049,0,0,1145,33,N/A,0,0,35,1145,33,167,0,,NaN,NaN,NaN,NaN,NaN,NaN,7,1,2020-11-10_09h25.37.286,Pirates_expt3,2020.1.2,Win32,60,NaN,NaN,NaN,NaN,NaN,NaN,NaN,,NaN,NaN,NaN,NaN,NaN,NaN,,NaN,NaN,NaN,NaN,NaN,NaN,"",,NaN,4,0,4,0,1,3,200,0,200,0,1,199,,NaN,NaN,NaN,NaN,NaN,NaN,NaN,,NaN,,NaN,,NaN
NaN,NaN,NaN,NaN,NaN,"",NaN,NaN,"",NaN,NaN,1,1,35,1,90,96,51,0.05,0.1,0.15,0.05,90,96,51,0.05,0.1,0.15,0,2,0,0,0,0,1145,33,N/A,0,0,35,1145,33,167,0,,NaN,NaN,NaN,NaN,NaN,NaN,7,1,2020-11-10_09h25.37.286,Pirates_expt3,2020.1.2,Win32,60,NaN,NaN,NaN,NaN,NaN,NaN,NaN,,NaN,NaN,NaN,NaN,NaN,NaN,,NaN,NaN,NaN,NaN,NaN,NaN,"",,NaN,4,0,4,0,1,3,200,0,200,0,1,199,f,2.02049,NaN,NaN,NaN,NaN,NaN,NaN,,NaN,,NaN,,NaN
NaN,NaN,NaN,NaN,NaN,"",NaN,NaN,"",NaN,NaN,1,1,34,1,90,96,51,0.05,0.1,0.15,0.05,90,96,51,0.05,0.1,0.15,2,3,0,0,90,90,1145,33,space,0.72138,0,34,1145,33,167,0,,NaN,NaN,NaN,NaN,NaN,NaN,7,1,2020-11-10_09h25.37.286,Pirates_expt3,2020.1.2,Win32,60,NaN,NaN,NaN,NaN,NaN,NaN,NaN,,NaN,NaN,NaN,NaN,NaN,NaN,,NaN,NaN,NaN,NaN,NaN,NaN,"",,NaN,4,0,4,0,1,3,200,0,200,0,1,199,,NaN,200,0,200,0,1,199,,NaN,,NaN,,NaN
NaN,NaN,NaN,NaN,NaN,"",NaN,NaN,"",NaN,NaN,1,1,36,1,90,97,58,0.05,0.1,0.15,0.05,90,97,58,0.05,0.1,0.15,0,4,0,0,90,90,1236,34,0,0,0,36,1236,34,166,0,,NaN,NaN,NaN,NaN,NaN,NaN,7,1,2020-11-10_09h25.37.286,Pirates_expt3,2020.1.2,Win32,60,NaN,NaN,NaN,NaN,NaN,NaN,NaN,,NaN,NaN,NaN,NaN,NaN,NaN,,NaN,NaN,NaN,NaN,NaN,NaN,"",,NaN,4,0,4,0,1,3,200,0,200,0,1,199,,NaN,200,0,200,0,1,199,space,0.72138,,NaN,,NaN
NaN,NaN,NaN,NaN,NaN,"",NaN,NaN,"",NaN,NaN,NaN,NaN,NaN,NaN,NaN,NaN,NaN,NaN,NaN,NaN,NaN,NaN,NaN,NaN,NaN,NaN,NaN,NaN,NaN,,NaN,NaN,NaN,NaN,NaN,,NaN,NaN,NaN,NaN,NaN,NaN,NaN,,NaN,NaN,NaN,NaN,NaN,NaN,7,1,2020-11-10_09h25.37.286,Pirates_expt3,2020.1.2,Win32,60,NaN,NaN,NaN,NaN,NaN,NaN,NaN,,NaN,NaN,NaN,NaN,NaN,NaN,,NaN,NaN,NaN,NaN,NaN,NaN,"",,NaN,NaN,NaN,NaN,NaN,NaN,NaN,NaN,NaN,NaN,NaN,NaN,NaN,,NaN,0,0,0,0,1,NaN,,NaN,,NaN,,NaN
NaN,NaN,NaN,NaN,NaN,"",NaN,NaN,"",NaN,NaN,1,1,36,1,86,97,58,0.05,0.1,0.15,0.05,86,97,58,0.05,0.1,0.15,2,3,0,0,86,86,1236,34,space,0.35866,0,36,1236,34,166,0,,NaN,NaN,NaN,NaN,NaN,NaN,7,1,2020-11-10_09h25.37.286,Pirates_expt3,2020.1.2,Win32,60,NaN,NaN,NaN,NaN,NaN,NaN,NaN,,NaN,NaN,NaN,NaN,NaN,NaN,,NaN,NaN,NaN,NaN,NaN,NaN,"",,NaN,4,0,4,0,1,3,200,0,200,0,1,199,,NaN,200,0,200,0,1,199,,NaN,,NaN,,NaN
NaN,NaN,NaN,NaN,NaN,"",NaN,NaN,"",NaN,NaN,1,1,37,1,86,97,64,0.05,0.1,0.15,0.05,86,97,64,0.05,0.1,0.15,0,4,0,0,86,86,1322,35,0,0,0,37,1322,35,165,0,,NaN,NaN,NaN,NaN,NaN,NaN,7,1,2020-11-10_09h25.37.286,Pirates_expt3,2020.1.2,Win32,60,NaN,NaN,NaN,NaN,NaN,NaN,NaN,,NaN,NaN,NaN,NaN,NaN,NaN,,NaN,NaN,NaN,NaN,NaN,NaN,"",,NaN,4,0,4,0,1,3,200,0,200,0,1,199,,NaN,200,0,200,0,1,199,space,0.35866,,NaN,,NaN
NaN,NaN,NaN,NaN,NaN,"",NaN,NaN,"",NaN,NaN,NaN,NaN,NaN,NaN,NaN,NaN,NaN,NaN,NaN,NaN,NaN,NaN,NaN,NaN,NaN,NaN,NaN,NaN,NaN,,NaN,NaN,NaN,NaN,NaN,,NaN,NaN,NaN,NaN,NaN,NaN,NaN,,NaN,NaN,NaN,NaN,NaN,NaN,7,1,2020-11-10_09h25.37.286,Pirates_expt3,2020.1.2,Win32,60,NaN,NaN,NaN,NaN,NaN,NaN,NaN,,NaN,NaN,NaN,NaN,NaN,NaN,,NaN,NaN,NaN,NaN,NaN,NaN,"",,NaN,NaN,NaN,NaN,NaN,NaN,NaN,NaN,NaN,NaN,NaN,NaN,NaN,,NaN,1,0,1,0,1,NaN,,NaN,,NaN,,NaN
NaN,NaN,NaN,NaN,NaN,"",NaN,NaN,"",NaN,NaN,1,1,37,1,77,97,64,0.05,0.1,0.15,0.05,77,97,64,0.05,0.1,0.15,2,3,0,0,77,77,1322,35,space,0.166635,0,37,1322,35,165,0,,NaN,NaN,NaN,NaN,NaN,NaN,7,1,2020-11-10_09h25.37.286,Pirates_expt3,2020.1.2,Win32,60,NaN,NaN,NaN,NaN,NaN,NaN,NaN,,NaN,NaN,NaN,NaN,NaN,NaN,,NaN,NaN,NaN,NaN,NaN,NaN,"",,NaN,4,0,4,0,1,3,200,0,200,0,1,199,,NaN,200,0,200,0,1,199,,NaN,,NaN,,NaN
NaN,NaN,NaN,NaN,NaN,"",NaN,NaN,"",NaN,NaN,1,1,38,1,77,97,70,0.05,0.1,0.15,0.05,77,97,70,0.05,0.1,0.15,0,4,0,0,77,77,1400,36,0,0,0,38,1400,36,164,0,,NaN,NaN,NaN,NaN,NaN,NaN,7,1,2020-11-10_09h25.37.286,Pirates_expt3,2020.1.2,Win32,60,NaN,NaN,NaN,NaN,NaN,NaN,NaN,,NaN,NaN,NaN,NaN,NaN,NaN,,NaN,NaN,NaN,NaN,NaN,NaN,"",,NaN,4,0,4,0,1,3,200,0,200,0,1,199,,NaN,200,0,200,0,1,199,space,0.166635,,NaN,,NaN
NaN,NaN,NaN,NaN,NaN,"",NaN,NaN,"",NaN,NaN,NaN,NaN,NaN,NaN,NaN,NaN,NaN,NaN,NaN,NaN,NaN,NaN,NaN,NaN,NaN,NaN,NaN,NaN,NaN,,NaN,NaN,NaN,NaN,NaN,,NaN,NaN,NaN,NaN,NaN,NaN,NaN,,NaN,NaN,NaN,NaN,NaN,NaN,7,1,2020-11-10_09h25.37.286,Pirates_expt3,2020.1.2,Win32,60,NaN,NaN,NaN,NaN,NaN,NaN,NaN,,NaN,NaN,NaN,NaN,NaN,NaN,,NaN,NaN,NaN,NaN,NaN,NaN,"",,NaN,NaN,NaN,NaN,NaN,NaN,NaN,NaN,NaN,NaN,NaN,NaN,NaN,,NaN,2,0,2,0,1,NaN,,NaN,,NaN,,NaN
NaN,NaN,NaN,NaN,NaN,"",NaN,NaN,"",NaN,NaN,1,1,38,1,66,97,70,0.05,0.1,0.15,0.05,66,97,70,0.05,0.1,0.15,2,3,0,0,66,66,1400,36,space,0.952965,0,38,1400,36,164,0,,NaN,NaN,NaN,NaN,NaN,NaN,7,1,2020-11-10_09h25.37.286,Pirates_expt3,2020.1.2,Win32,60,NaN,NaN,NaN,NaN,NaN,NaN,NaN,,NaN,NaN,NaN,NaN,NaN,NaN,,NaN,NaN,NaN,NaN,NaN,NaN,"",,NaN,4,0,4,0,1,3,200,0,200,0,1,199,,NaN,200,0,200,0,1,199,,NaN,,NaN,,NaN
NaN,NaN,NaN,NaN,NaN,"",NaN,NaN,"",NaN,NaN,1,1,39,1,66,97,74,0.05,0.1,0.15,0.05,66,97,74,0.05,0.1,0.15,0,4,0,0,66,66,1467,37,0,0,0,39,1467,37,163,0,,NaN,NaN,NaN,NaN,NaN,NaN,7,1,2020-11-10_09h25.37.286,Pirates_expt3,2020.1.2,Win32,60,NaN,NaN,NaN,NaN,NaN,NaN,NaN,,NaN,NaN,NaN,NaN,NaN,NaN,,NaN,NaN,NaN,NaN,NaN,NaN,"",,NaN,4,0,4,0,1,3,200,0,200,0,1,199,,NaN,200,0,200,0,1,199,space,0.952965,,NaN,,NaN
NaN,NaN,NaN,NaN,NaN,"",NaN,NaN,"",NaN,NaN,NaN,NaN,NaN,NaN,NaN,NaN,NaN,NaN,NaN,NaN,NaN,NaN,NaN,NaN,NaN,NaN,NaN,NaN,NaN,,NaN,NaN,NaN,NaN,NaN,,NaN,NaN,NaN,NaN,NaN,NaN,NaN,,NaN,NaN,NaN,NaN,NaN,NaN,7,1,2020-11-10_09h25.37.286,Pirates_expt3,2020.1.2,Win32,60,NaN,NaN,NaN,NaN,NaN,NaN,NaN,,NaN,NaN,NaN,NaN,NaN,NaN,,NaN,NaN,NaN,NaN,NaN,NaN,"",,NaN,NaN,NaN,NaN,NaN,NaN,NaN,NaN,NaN,NaN,NaN,NaN,NaN,,NaN,3,0,3,0,1,NaN,,NaN,,NaN,,NaN
NaN,NaN,NaN,NaN,NaN,"",NaN,NaN,"",NaN,NaN,1,1,39,1,54,97,74,0.05,0.1,0.15,0.05,54,97,74,0.05,0.1,0.15,2,3,0,0,54,54,1467,37,space,0.41944,0,39,1467,37,163,0,,NaN,NaN,NaN,NaN,NaN,NaN,7,1,2020-11-10_09h25.37.286,Pirates_expt3,2020.1.2,Win32,60,NaN,NaN,NaN,NaN,NaN,NaN,NaN,,NaN,NaN,NaN,NaN,NaN,NaN,,NaN,NaN,NaN,NaN,NaN,NaN,"",,NaN,4,0,4,0,1,3,200,0,200,0,1,199,,NaN,200,0,200,0,1,199,,NaN,,NaN,,NaN
NaN,NaN,NaN,NaN,NaN,"",NaN,NaN,"",NaN,NaN,1,1,40,1,54,98,78,0.05,0.1,0.15,0.05,54,98,78,0.05,0.1,0.15,0,4,0,0,54,54,1521,38,0,0,0,40,1521,38,162,0,,NaN,NaN,NaN,NaN,NaN,NaN,7,1,2020-11-10_09h25.37.286,Pirates_expt3,2020.1.2,Win32,60,NaN,NaN,NaN,NaN,NaN,NaN,NaN,,NaN,NaN,NaN,NaN,NaN,NaN,,NaN,NaN,NaN,NaN,NaN,NaN,"",,NaN,4,0,4,0,1,3,200,0,200,0,1,199,,NaN,200,0,200,0,1,199,space,0.41944,,NaN,,NaN
NaN,NaN,NaN,NaN,NaN,"",NaN,NaN,"",NaN,NaN,NaN,NaN,NaN,NaN,NaN,NaN,NaN,NaN,NaN,NaN,NaN,NaN,NaN,NaN,NaN,NaN,NaN,NaN,NaN,,NaN,NaN,NaN,NaN,NaN,,NaN,NaN,NaN,NaN,NaN,NaN,NaN,,NaN,NaN,NaN,NaN,NaN,NaN,7,1,2020-11-10_09h25.37.286,Pirates_expt3,2020.1.2,Win32,60,NaN,NaN,NaN,NaN,NaN,NaN,NaN,,NaN,NaN,NaN,NaN,NaN,NaN,,NaN,NaN,NaN,NaN,NaN,NaN,"",,NaN,NaN,NaN,NaN,NaN,NaN,NaN,NaN,NaN,NaN,NaN,NaN,NaN,,NaN,4,0,4,0,1,NaN,,NaN,,NaN,,NaN
NaN,NaN,NaN,NaN,NaN,"",NaN,NaN,"",NaN,NaN,1,1,40,1,42,98,78,0.05,0.1,0.15,0.05,42,98,78,0.05,0.1,0.15,2,3,0,0,42,42,1521,38,space,0.03961,0,40,1521,38,162,0,,NaN,NaN,NaN,NaN,NaN,NaN,7,1,2020-11-10_09h25.37.286,Pirates_expt3,2020.1.2,Win32,60,NaN,NaN,NaN,NaN,NaN,NaN,NaN,,NaN,NaN,NaN,NaN,NaN,NaN,,NaN,NaN,NaN,NaN,NaN,NaN,"",,NaN,4,0,4,0,1,3,200,0,200,0,1,199,,NaN,200,0,200,0,1,199,,NaN,,NaN,,NaN
NaN,NaN,NaN,NaN,NaN,"",NaN,NaN,"",NaN,NaN,1,1,40,1,42,98,81,0.05,0.1,0.15,0.05,42,98,81,0.05,0.1,0.15,0,4,0,0,42,42,1564,39,0,0,0,40,1564,39,161,0,,NaN,NaN,NaN,NaN,NaN,NaN,7,1,2020-11-10_09h25.37.286,Pirates_expt3,2020.1.2,Win32,60,NaN,NaN,NaN,NaN,NaN,NaN,NaN,,NaN,NaN,NaN,NaN,NaN,NaN,,NaN,NaN,NaN,NaN,NaN,NaN,"",,NaN,4,0,4,0,1,3,200,0,200,0,1,199,,NaN,200,0,200,0,1,199,space,0.03961,,NaN,,NaN
NaN,NaN,NaN,NaN,NaN,"",NaN,NaN,"",NaN,NaN,NaN,NaN,NaN,NaN,NaN,NaN,NaN,NaN,NaN,NaN,NaN,NaN,NaN,NaN,NaN,NaN,NaN,NaN,NaN,,NaN,NaN,NaN,NaN,NaN,,NaN,NaN,NaN,NaN,NaN,NaN,NaN,,NaN,NaN,NaN,NaN,NaN,NaN,7,1,2020-11-10_09h25.37.286,Pirates_expt3,2020.1.2,Win32,60,NaN,NaN,NaN,NaN,NaN,NaN,NaN,,NaN,NaN,NaN,NaN,NaN,NaN,,NaN,NaN,NaN,NaN,NaN,NaN,"",,NaN,NaN,NaN,NaN,NaN,NaN,NaN,NaN,NaN,NaN,NaN,NaN,NaN,,NaN,5,0,5,0,1,NaN,,NaN,,NaN,,NaN
NaN,NaN,NaN,NaN,NaN,"",NaN,NaN,"",NaN,NaN,1,1,40,1,30,98,81,0.05,0.1,0.15,0.05,30,98,81,0.05,0.1,0.15,3,3,0,0,30,30,1564,39,s,0.4539,6,40,1564,39,161,0,,NaN,NaN,NaN,NaN,NaN,NaN,7,1,2020-11-10_09h25.37.286,Pirates_expt3,2020.1.2,Win32,60,NaN,NaN,NaN,NaN,NaN,NaN,NaN,,NaN,NaN,NaN,NaN,NaN,NaN,,NaN,NaN,NaN,NaN,NaN,NaN,"",,NaN,4,0,4,0,1,3,200,0,200,0,1,199,,NaN,200,0,200,0,1,199,,NaN,,NaN,,NaN
NaN,NaN,NaN,NaN,NaN,"",NaN,NaN,"",NaN,NaN,1,1,39,1,34,98,84,0.05,0.1,0.15,0.05,34,98,84,0.05,0.1,0.15,0,4,0,0,34,30,1564,40,0,0,0,39,1564,40,160,12.4,,NaN,NaN,NaN,NaN,NaN,NaN,7,1,2020-11-10_09h25.37.286,Pirates_expt3,2020.1.2,Win32,60,NaN,NaN,NaN,NaN,NaN,NaN,NaN,,NaN,NaN,NaN,NaN,NaN,NaN,,NaN,NaN,NaN,NaN,NaN,NaN,"",,NaN,4,0,4,0,1,3,200,0,200,0,1,199,,NaN,200,0,200,0,1,199,s,0.4539,,NaN,,NaN
NaN,NaN,NaN,NaN,NaN,"",NaN,NaN,"",NaN,NaN,NaN,NaN,NaN,NaN,NaN,NaN,NaN,NaN,NaN,NaN,NaN,NaN,NaN,NaN,NaN,NaN,NaN,NaN,NaN,,NaN,NaN,NaN,NaN,NaN,,NaN,NaN,NaN,NaN,NaN,NaN,NaN,,NaN,NaN,NaN,NaN,NaN,NaN,7,1,2020-11-10_09h25.37.286,Pirates_expt3,2020.1.2,Win32,60,NaN,NaN,NaN,NaN,NaN,NaN,NaN,,NaN,NaN,NaN,NaN,NaN,NaN,,NaN,NaN,NaN,NaN,NaN,NaN,"",,NaN,NaN,NaN,NaN,NaN,NaN,NaN,9,0,9,0,1,NaN,,NaN,NaN,NaN,NaN,NaN,NaN,NaN,,NaN,,NaN,,NaN
NaN,NaN,NaN,NaN,NaN,"",NaN,NaN,"",NaN,NaN,1,1,39,3,34,98,84,0.05,0.1,0.15,0.15,34,98,84,0.05,0.1,0.15,1,1,k,1.30764,0,0,1564,41,N/A,0,0,39,1564,41,159,0,,NaN,NaN,NaN,NaN,NaN,NaN,7,1,2020-11-10_09h25.37.286,Pirates_expt3,2020.1.2,Win32,60,NaN,NaN,NaN,NaN,NaN,NaN,NaN,,NaN,NaN,NaN,NaN,NaN,NaN,,NaN,NaN,NaN,NaN,NaN,NaN,"",,NaN,4,0,4,0,1,3,200,0,200,0,1,199,,NaN,NaN,NaN,NaN,NaN,NaN,NaN,,NaN,,NaN,,NaN
NaN,NaN,NaN,NaN,NaN,"",NaN,NaN,"",NaN,NaN,1,1,39,3,37,98,86,0.05,0.1,0.15,0.15,37,98,86,0.05,0.1,0.15,0,2,0,0,0,0,1564,41,N/A,0,0,39,1564,41,159,0,,NaN,NaN,NaN,NaN,NaN,NaN,7,1,2020-11-10_09h25.37.286,Pirates_expt3,2020.1.2,Win32,60,NaN,NaN,NaN,NaN,NaN,NaN,NaN,,NaN,NaN,NaN,NaN,NaN,NaN,,NaN,NaN,NaN,NaN,NaN,NaN,"",,NaN,4,0,4,0,1,3,200,0,200,0,1,199,k,1.30764,NaN,NaN,NaN,NaN,NaN,NaN,,NaN,,NaN,,NaN
NaN,NaN,NaN,NaN,NaN,"",NaN,NaN,"",NaN,NaN,1,1,38,3,37,98,86,0.05,0.1,0.15,0.15,37,98,86,0.05,0.1,0.15,2,3,0,0,86,86,1564,41,space,1.462035,0,38,1564,41,159,0,,NaN,NaN,NaN,NaN,NaN,NaN,7,1,2020-11-10_09h25.37.286,Pirates_expt3,2020.1.2,Win32,60,NaN,NaN,NaN,NaN,NaN,NaN,NaN,,NaN,NaN,NaN,NaN,NaN,NaN,,NaN,NaN,NaN,NaN,NaN,NaN,"",,NaN,4,0,4,0,1,3,200,0,200,0,1,199,,NaN,200,0,200,0,1,199,,NaN,,NaN,,NaN
NaN,NaN,NaN,NaN,NaN,"",NaN,NaN,"",NaN,NaN,1,1,39,3,40,98,86,0.05,0.1,0.15,0.15,40,98,86,0.05,0.1,0.15,0,4,0,0,86,86,1650,42,0,0,0,39,1650,42,158,0,,NaN,NaN,NaN,NaN,NaN,NaN,7,1,2020-11-10_09h25.37.286,Pirates_expt3,2020.1.2,Win32,60,NaN,NaN,NaN,NaN,NaN,NaN,NaN,,NaN,NaN,NaN,NaN,NaN,NaN,,NaN,NaN,NaN,NaN,NaN,NaN,"",,NaN,4,0,4,0,1,3,200,0,200,0,1,199,,NaN,200,0,200,0,1,199,space,1.462035,,NaN,,NaN
NaN,NaN,NaN,NaN,NaN,"",NaN,NaN,"",NaN,NaN,NaN,NaN,NaN,NaN,NaN,NaN,NaN,NaN,NaN,NaN,NaN,NaN,NaN,NaN,NaN,NaN,NaN,NaN,NaN,,NaN,NaN,NaN,NaN,NaN,,NaN,NaN,NaN,NaN,NaN,NaN,NaN,,NaN,NaN,NaN,NaN,NaN,NaN,7,1,2020-11-10_09h25.37.286,Pirates_expt3,2020.1.2,Win32,60,NaN,NaN,NaN,NaN,NaN,NaN,NaN,,NaN,NaN,NaN,NaN,NaN,NaN,,NaN,NaN,NaN,NaN,NaN,NaN,"",,NaN,NaN,NaN,NaN,NaN,NaN,NaN,NaN,NaN,NaN,NaN,NaN,NaN,,NaN,0,0,0,0,1,NaN,,NaN,,NaN,,NaN
NaN,NaN,NaN,NaN,NaN,"",NaN,NaN,"",NaN,NaN,1,1,39,3,40,98,82,0.05,0.1,0.15,0.15,40,98,82,0.05,0.1,0.15,2,3,0,0,82,82,1650,42,space,0.44649,0,39,1650,42,158,0,,NaN,NaN,NaN,NaN,NaN,NaN,7,1,2020-11-10_09h25.37.286,Pirates_expt3,2020.1.2,Win32,60,NaN,NaN,NaN,NaN,NaN,NaN,NaN,,NaN,NaN,NaN,NaN,NaN,NaN,,NaN,NaN,NaN,NaN,NaN,NaN,"",,NaN,4,0,4,0,1,3,200,0,200,0,1,199,,NaN,200,0,200,0,1,199,,NaN,,NaN,,NaN
NaN,NaN,NaN,NaN,NaN,"",NaN,NaN,"",NaN,NaN,1,1,40,3,43,98,82,0.05,0.1,0.15,0.15,43,98,82,0.05,0.1,0.15,0,4,0,0,82,82,1733,43,0,0,0,40,1733,43,157,0,,NaN,NaN,NaN,NaN,NaN,NaN,7,1,2020-11-10_09h25.37.286,Pirates_expt3,2020.1.2,Win32,60,NaN,NaN,NaN,NaN,NaN,NaN,NaN,,NaN,NaN,NaN,NaN,NaN,NaN,,NaN,NaN,NaN,NaN,NaN,NaN,"",,NaN,4,0,4,0,1,3,200,0,200,0,1,199,,NaN,200,0,200,0,1,199,space,0.44649,,NaN,,NaN
NaN,NaN,NaN,NaN,NaN,"",NaN,NaN,"",NaN,NaN,NaN,NaN,NaN,NaN,NaN,NaN,NaN,NaN,NaN,NaN,NaN,NaN,NaN,NaN,NaN,NaN,NaN,NaN,NaN,,NaN,NaN,NaN,NaN,NaN,,NaN,NaN,NaN,NaN,NaN,NaN,NaN,,NaN,NaN,NaN,NaN,NaN,NaN,7,1,2020-11-10_09h25.37.286,Pirates_expt3,2020.1.2,Win32,60,NaN,NaN,NaN,NaN,NaN,NaN,NaN,,NaN,NaN,NaN,NaN,NaN,NaN,,NaN,NaN,NaN,NaN,NaN,NaN,"",,NaN,NaN,NaN,NaN,NaN,NaN,NaN,NaN,NaN,NaN,NaN,NaN,NaN,,NaN,1,0,1,0,1,NaN,,NaN,,NaN,,NaN
NaN,NaN,NaN,NaN,NaN,"",NaN,NaN,"",NaN,NaN,1,1,40,3,43,98,74,0.05,0.1,0.15,0.15,43,98,74,0.05,0.1,0.15,2,3,0,0,74,74,1733,43,space,0.4832,0,40,1733,43,157,0,,NaN,NaN,NaN,NaN,NaN,NaN,7,1,2020-11-10_09h25.37.286,Pirates_expt3,2020.1.2,Win32,60,NaN,NaN,NaN,NaN,NaN,NaN,NaN,,NaN,NaN,NaN,NaN,NaN,NaN,,NaN,NaN,NaN,NaN,NaN,NaN,"",,NaN,4,0,4,0,1,3,200,0,200,0,1,199,,NaN,200,0,200,0,1,199,,NaN,,NaN,,NaN
NaN,NaN,NaN,NaN,NaN,"",NaN,NaN,"",NaN,NaN,1,1,41,3,46,99,74,0.05,0.1,0.15,0.15,46,99,74,0.05,0.1,0.15,0,4,0,0,74,74,1807,44,0,0,0,41,1807,44,156,0,,NaN,NaN,NaN,NaN,NaN,NaN,7,1,2020-11-10_09h25.37.286,Pirates_expt3,2020.1.2,Win32,60,NaN,NaN,NaN,NaN,NaN,NaN,NaN,,NaN,NaN,NaN,NaN,NaN,NaN,,NaN,NaN,NaN,NaN,NaN,NaN,"",,NaN,4,0,4,0,1,3,200,0,200,0,1,199,,NaN,200,0,200,0,1,199,space,0.4832,,NaN,,NaN
NaN,NaN,NaN,NaN,NaN,"",NaN,NaN,"",NaN,NaN,NaN,NaN,NaN,NaN,NaN,NaN,NaN,NaN,NaN,NaN,NaN,NaN,NaN,NaN,NaN,NaN,NaN,NaN,NaN,,NaN,NaN,NaN,NaN,NaN,,NaN,NaN,NaN,NaN,NaN,NaN,NaN,,NaN,NaN,NaN,NaN,NaN,NaN,7,1,2020-11-10_09h25.37.286,Pirates_expt3,2020.1.2,Win32,60,NaN,NaN,NaN,NaN,NaN,NaN,NaN,,NaN,NaN,NaN,NaN,NaN,NaN,,NaN,NaN,NaN,NaN,NaN,NaN,"",,NaN,NaN,NaN,NaN,NaN,NaN,NaN,NaN,NaN,NaN,NaN,NaN,NaN,,NaN,2,0,2,0,1,NaN,,NaN,,NaN,,NaN
NaN,NaN,NaN,NaN,NaN,"",NaN,NaN,"",NaN,NaN,1,1,41,3,46,99,63,0.05,0.1,0.15,0.15,46,99,63,0.05,0.1,0.15,2,3,0,0,63,63,1807,44,space,0.36293,0,41,1807,44,156,0,,NaN,NaN,NaN,NaN,NaN,NaN,7,1,2020-11-10_09h25.37.286,Pirates_expt3,2020.1.2,Win32,60,NaN,NaN,NaN,NaN,NaN,NaN,NaN,,NaN,NaN,NaN,NaN,NaN,NaN,,NaN,NaN,NaN,NaN,NaN,NaN,"",,NaN,4,0,4,0,1,3,200,0,200,0,1,199,,NaN,200,0,200,0,1,199,,NaN,,NaN,,NaN
NaN,NaN,NaN,NaN,NaN,"",NaN,NaN,"",NaN,NaN,1,1,41,3,49,99,63,0.05,0.1,0.15,0.15,49,99,63,0.05,0.1,0.15,0,4,0,0,63,63,1871,45,0,0,0,41,1871,45,155,0,,NaN,NaN,NaN,NaN,NaN,NaN,7,1,2020-11-10_09h25.37.286,Pirates_expt3,2020.1.2,Win32,60,NaN,NaN,NaN,NaN,NaN,NaN,NaN,,NaN,NaN,NaN,NaN,NaN,NaN,,NaN,NaN,NaN,NaN,NaN,NaN,"",,NaN,4,0,4,0,1,3,200,0,200,0,1,199,,NaN,200,0,200,0,1,199,space,0.36293,,NaN,,NaN
NaN,NaN,NaN,NaN,NaN,"",NaN,NaN,"",NaN,NaN,NaN,NaN,NaN,NaN,NaN,NaN,NaN,NaN,NaN,NaN,NaN,NaN,NaN,NaN,NaN,NaN,NaN,NaN,NaN,,NaN,NaN,NaN,NaN,NaN,,NaN,NaN,NaN,NaN,NaN,NaN,NaN,,NaN,NaN,NaN,NaN,NaN,NaN,7,1,2020-11-10_09h25.37.286,Pirates_expt3,2020.1.2,Win32,60,NaN,NaN,NaN,NaN,NaN,NaN,NaN,,NaN,NaN,NaN,NaN,NaN,NaN,,NaN,NaN,NaN,NaN,NaN,NaN,"",,NaN,NaN,NaN,NaN,NaN,NaN,NaN,NaN,NaN,NaN,NaN,NaN,NaN,,NaN,3,0,3,0,1,NaN,,NaN,,NaN,,NaN
NaN,NaN,NaN,NaN,NaN,"",NaN,NaN,"",NaN,NaN,1,1,41,3,49,99,51,0.05,0.1,0.15,0.15,49,99,51,0.05,0.1,0.15,2,3,0,0,51,51,1871,45,space,0.10785,0,41,1871,45,155,0,,NaN,NaN,NaN,NaN,NaN,NaN,7,1,2020-11-10_09h25.37.286,Pirates_expt3,2020.1.2,Win32,60,NaN,NaN,NaN,NaN,NaN,NaN,NaN,,NaN,NaN,NaN,NaN,NaN,NaN,,NaN,NaN,NaN,NaN,NaN,NaN,"",,NaN,4,0,4,0,1,3,200,0,200,0,1,199,,NaN,200,0,200,0,1,199,,NaN,,NaN,,NaN
NaN,NaN,NaN,NaN,NaN,"",NaN,NaN,"",NaN,NaN,1,1,41,3,51,99,51,0.05,0.1,0.15,0.15,51,99,51,0.05,0.1,0.15,0,4,0,0,51,51,1923,46,0,0,0,41,1923,46,154,0,,NaN,NaN,NaN,NaN,NaN,NaN,7,1,2020-11-10_09h25.37.286,Pirates_expt3,2020.1.2,Win32,60,NaN,NaN,NaN,NaN,NaN,NaN,NaN,,NaN,NaN,NaN,NaN,NaN,NaN,,NaN,NaN,NaN,NaN,NaN,NaN,"",,NaN,4,0,4,0,1,3,200,0,200,0,1,199,,NaN,200,0,200,0,1,199,space,0.10785,,NaN,,NaN
NaN,NaN,NaN,NaN,NaN,"",NaN,NaN,"",NaN,NaN,NaN,NaN,NaN,NaN,NaN,NaN,NaN,NaN,NaN,NaN,NaN,NaN,NaN,NaN,NaN,NaN,NaN,NaN,NaN,,NaN,NaN,NaN,NaN,NaN,,NaN,NaN,NaN,NaN,NaN,NaN,NaN,,NaN,NaN,NaN,NaN,NaN,NaN,7,1,2020-11-10_09h25.37.286,Pirates_expt3,2020.1.2,Win32,60,NaN,NaN,NaN,NaN,NaN,NaN,NaN,,NaN,NaN,NaN,NaN,NaN,NaN,,NaN,NaN,NaN,NaN,NaN,NaN,"",,NaN,NaN,NaN,NaN,NaN,NaN,NaN,NaN,NaN,NaN,NaN,NaN,NaN,,NaN,4,0,4,0,1,NaN,,NaN,,NaN,,NaN
NaN,NaN,NaN,NaN,NaN,"",NaN,NaN,"",NaN,NaN,1,1,41,3,51,99,40,0.05,0.1,0.15,0.15,51,99,40,0.05,0.1,0.15,2,3,0,0,40,40,1923,46,space,0.71127,0,41,1923,46,154,0,,NaN,NaN,NaN,NaN,NaN,NaN,7,1,2020-11-10_09h25.37.286,Pirates_expt3,2020.1.2,Win32,60,NaN,NaN,NaN,NaN,NaN,NaN,NaN,,NaN,NaN,NaN,NaN,NaN,NaN,,NaN,NaN,NaN,NaN,NaN,NaN,"",,NaN,4,0,4,0,1,3,200,0,200,0,1,199,,NaN,200,0,200,0,1,199,,NaN,,NaN,,NaN
NaN,NaN,NaN,NaN,NaN,"",NaN,NaN,"",NaN,NaN,1,1,41,3,54,99,40,0.05,0.1,0.15,0.15,54,99,40,0.05,0.1,0.15,0,4,0,0,40,40,1963,47,0,0,0,41,1963,47,153,0,,NaN,NaN,NaN,NaN,NaN,NaN,7,1,2020-11-10_09h25.37.286,Pirates_expt3,2020.1.2,Win32,60,NaN,NaN,NaN,NaN,NaN,NaN,NaN,,NaN,NaN,NaN,NaN,NaN,NaN,,NaN,NaN,NaN,NaN,NaN,NaN,"",,NaN,4,0,4,0,1,3,200,0,200,0,1,199,,NaN,200,0,200,0,1,199,space,0.71127,,NaN,,NaN
NaN,NaN,NaN,NaN,NaN,"",NaN,NaN,"",NaN,NaN,NaN,NaN,NaN,NaN,NaN,NaN,NaN,NaN,NaN,NaN,NaN,NaN,NaN,NaN,NaN,NaN,NaN,NaN,NaN,,NaN,NaN,NaN,NaN,NaN,,NaN,NaN,NaN,NaN,NaN,NaN,NaN,,NaN,NaN,NaN,NaN,NaN,NaN,7,1,2020-11-10_09h25.37.286,Pirates_expt3,2020.1.2,Win32,60,NaN,NaN,NaN,NaN,NaN,NaN,NaN,,NaN,NaN,NaN,NaN,NaN,NaN,,NaN,NaN,NaN,NaN,NaN,NaN,"",,NaN,NaN,NaN,NaN,NaN,NaN,NaN,NaN,NaN,NaN,NaN,NaN,NaN,,NaN,5,0,5,0,1,NaN,,NaN,,NaN,,NaN
NaN,NaN,NaN,NaN,NaN,"",NaN,NaN,"",NaN,NaN,1,1,41,3,54,99,29,0.05,0.1,0.15,0.15,54,99,29,0.05,0.1,0.15,3,3,0,0,29,29,1963,47,s,0.12637,6,41,1963,47,153,0,,NaN,NaN,NaN,NaN,NaN,NaN,7,1,2020-11-10_09h25.37.286,Pirates_expt3,2020.1.2,Win32,60,NaN,NaN,NaN,NaN,NaN,NaN,NaN,,NaN,NaN,NaN,NaN,NaN,NaN,,NaN,NaN,NaN,NaN,NaN,NaN,"",,NaN,4,0,4,0,1,3,200,0,200,0,1,199,,NaN,200,0,200,0,1,199,,NaN,,NaN,,NaN
NaN,NaN,NaN,NaN,NaN,"",NaN,NaN,"",NaN,NaN,1,1,40,3,56,99,40,0.05,0.1,0.15,0.15,56,99,40,0.05,0.1,0.15,0,4,0,0,40,29,1963,48,0,0,0,40,1963,48,152,12.996,,NaN,NaN,NaN,NaN,NaN,NaN,7,1,2020-11-10_09h25.37.286,Pirates_expt3,2020.1.2,Win32,60,NaN,NaN,NaN,NaN,NaN,NaN,NaN,,NaN,NaN,NaN,NaN,NaN,NaN,,NaN,NaN,NaN,NaN,NaN,NaN,"",,NaN,4,0,4,0,1,3,200,0,200,0,1,199,,NaN,200,0,200,0,1,199,s,0.12637,,NaN,,NaN
NaN,NaN,NaN,NaN,NaN,"",NaN,NaN,"",NaN,NaN,NaN,NaN,NaN,NaN,NaN,NaN,NaN,NaN,NaN,NaN,NaN,NaN,NaN,NaN,NaN,NaN,NaN,NaN,NaN,,NaN,NaN,NaN,NaN,NaN,,NaN,NaN,NaN,NaN,NaN,NaN,NaN,,NaN,NaN,NaN,NaN,NaN,NaN,7,1,2020-11-10_09h25.37.286,Pirates_expt3,2020.1.2,Win32,60,NaN,NaN,NaN,NaN,NaN,NaN,NaN,,NaN,NaN,NaN,NaN,NaN,NaN,,NaN,NaN,NaN,NaN,NaN,NaN,"",,NaN,NaN,NaN,NaN,NaN,NaN,NaN,10,0,10,0,1,NaN,,NaN,NaN,NaN,NaN,NaN,NaN,NaN,,NaN,,NaN,,NaN
NaN,NaN,NaN,NaN,NaN,"",NaN,NaN,"",NaN,NaN,1,1,40,2,56,99,40,0.05,0.1,0.15,0.1,56,99,40,0.05,0.1,0.15,1,1,j,1.23828,0,0,1963,49,N/A,0,0,40,1963,49,151,0,,NaN,NaN,NaN,NaN,NaN,NaN,7,1,2020-11-10_09h25.37.286,Pirates_expt3,2020.1.2,Win32,60,NaN,NaN,NaN,NaN,NaN,NaN,NaN,,NaN,NaN,NaN,NaN,NaN,NaN,,NaN,NaN,NaN,NaN,NaN,NaN,"",,NaN,4,0,4,0,1,3,200,0,200,0,1,199,,NaN,NaN,NaN,NaN,NaN,NaN,NaN,,NaN,,NaN,,NaN
NaN,NaN,NaN,NaN,NaN,"",NaN,NaN,"",NaN,NaN,1,1,40,2,58,99,49,0.05,0.1,0.15,0.1,58,99,49,0.05,0.1,0.15,0,2,0,0,0,0,1963,49,N/A,0,0,40,1963,49,151,0,,NaN,NaN,NaN,NaN,NaN,NaN,7,1,2020-11-10_09h25.37.286,Pirates_expt3,2020.1.2,Win32,60,NaN,NaN,NaN,NaN,NaN,NaN,NaN,,NaN,NaN,NaN,NaN,NaN,NaN,,NaN,NaN,NaN,NaN,NaN,NaN,"",,NaN,4,0,4,0,1,3,200,0,200,0,1,199,j,1.23828,NaN,NaN,NaN,NaN,NaN,NaN,,NaN,,NaN,,NaN
NaN,NaN,NaN,NaN,NaN,"",NaN,NaN,"",NaN,NaN,1,1,40,2,58,99,49,0.05,0.1,0.15,0.1,58,99,49,0.05,0.1,0.15,2,3,0,0,99,99,1963,49,space,0.3971,0,40,1963,49,151,0,,NaN,NaN,NaN,NaN,NaN,NaN,7,1,2020-11-10_09h25.37.286,Pirates_expt3,2020.1.2,Win32,60,NaN,NaN,NaN,NaN,NaN,NaN,NaN,,NaN,NaN,NaN,NaN,NaN,NaN,,NaN,NaN,NaN,NaN,NaN,NaN,"",,NaN,4,0,4,0,1,3,200,0,200,0,1,199,,NaN,200,0,200,0,1,199,,NaN,,NaN,,NaN
NaN,NaN,NaN,NaN,NaN,"",NaN,NaN,"",NaN,NaN,1,1,41,2,60,99,56,0.05,0.1,0.15,0.1,60,99,56,0.05,0.1,0.15,0,4,0,0,99,99,2062,50,0,0,0,41,2062,50,150,0,,NaN,NaN,NaN,NaN,NaN,NaN,7,1,2020-11-10_09h25.37.286,Pirates_expt3,2020.1.2,Win32,60,NaN,NaN,NaN,NaN,NaN,NaN,NaN,,NaN,NaN,NaN,NaN,NaN,NaN,,NaN,NaN,NaN,NaN,NaN,NaN,"",,NaN,4,0,4,0,1,3,200,0,200,0,1,199,,NaN,200,0,200,0,1,199,space,0.3971,,NaN,,NaN
NaN,NaN,NaN,NaN,NaN,"",NaN,NaN,"",NaN,NaN,NaN,NaN,NaN,NaN,NaN,NaN,NaN,NaN,NaN,NaN,NaN,NaN,NaN,NaN,NaN,NaN,NaN,NaN,NaN,,NaN,NaN,NaN,NaN,NaN,,NaN,NaN,NaN,NaN,NaN,NaN,NaN,,NaN,NaN,NaN,NaN,NaN,NaN,7,1,2020-11-10_09h25.37.286,Pirates_expt3,2020.1.2,Win32,60,NaN,NaN,NaN,NaN,NaN,NaN,NaN,,NaN,NaN,NaN,NaN,NaN,NaN,,NaN,NaN,NaN,NaN,NaN,NaN,"",,NaN,NaN,NaN,NaN,NaN,NaN,NaN,NaN,NaN,NaN,NaN,NaN,NaN,,NaN,0,0,0,0,1,NaN,,NaN,,NaN,,NaN
NaN,NaN,NaN,NaN,NaN,"",NaN,NaN,"",NaN,NaN,1,1,41,2,60,94,56,0.05,0.1,0.15,0.1,60,94,56,0.05,0.1,0.15,2,3,0,0,94,94,2062,50,space,0.55531,0,41,2062,50,150,0,,NaN,NaN,NaN,NaN,NaN,NaN,7,1,2020-11-10_09h25.37.286,Pirates_expt3,2020.1.2,Win32,60,NaN,NaN,NaN,NaN,NaN,NaN,NaN,,NaN,NaN,NaN,NaN,NaN,NaN,,NaN,NaN,NaN,NaN,NaN,NaN,"",,NaN,4,0,4,0,1,3,200,0,200,0,1,199,,NaN,200,0,200,0,1,199,,NaN,,NaN,,NaN
NaN,NaN,NaN,NaN,NaN,"",NaN,NaN,"",NaN,NaN,1,1,42,2,62,94,63,0.05,0.1,0.15,0.1,62,94,63,0.05,0.1,0.15,0,4,0,0,94,94,2157,51,0,0,0,42,2157,51,149,0,,NaN,NaN,NaN,NaN,NaN,NaN,7,1,2020-11-10_09h25.37.286,Pirates_expt3,2020.1.2,Win32,60,NaN,NaN,NaN,NaN,NaN,NaN,NaN,,NaN,NaN,NaN,NaN,NaN,NaN,,NaN,NaN,NaN,NaN,NaN,NaN,"",,NaN,4,0,4,0,1,3,200,0,200,0,1,199,,NaN,200,0,200,0,1,199,space,0.55531,,NaN,,NaN
NaN,NaN,NaN,NaN,NaN,"",NaN,NaN,"",NaN,NaN,NaN,NaN,NaN,NaN,NaN,NaN,NaN,NaN,NaN,NaN,NaN,NaN,NaN,NaN,NaN,NaN,NaN,NaN,NaN,,NaN,NaN,NaN,NaN,NaN,,NaN,NaN,NaN,NaN,NaN,NaN,NaN,,NaN,NaN,NaN,NaN,NaN,NaN,7,1,2020-11-10_09h25.37.286,Pirates_expt3,2020.1.2,Win32,60,NaN,NaN,NaN,NaN,NaN,NaN,NaN,,NaN,NaN,NaN,NaN,NaN,NaN,,NaN,NaN,NaN,NaN,NaN,NaN,"",,NaN,NaN,NaN,NaN,NaN,NaN,NaN,NaN,NaN,NaN,NaN,NaN,NaN,,NaN,1,0,1,0,1,NaN,,NaN,,NaN,,NaN
NaN,NaN,NaN,NaN,NaN,"",NaN,NaN,"",NaN,NaN,1,1,42,2,62,85,63,0.05,0.1,0.15,0.1,62,85,63,0.05,0.1,0.15,2,3,0,0,85,85,2157,51,space,0.372935,0,42,2157,51,149,0,,NaN,NaN,NaN,NaN,NaN,NaN,7,1,2020-11-10_09h25.37.286,Pirates_expt3,2020.1.2,Win32,60,NaN,NaN,NaN,NaN,NaN,NaN,NaN,,NaN,NaN,NaN,NaN,NaN,NaN,,NaN,NaN,NaN,NaN,NaN,NaN,"",,NaN,4,0,4,0,1,3,200,0,200,0,1,199,,NaN,200,0,200,0,1,199,,NaN,,NaN,,NaN
NaN,NaN,NaN,NaN,NaN,"",NaN,NaN,"",NaN,NaN,1,1,43,2,64,85,68,0.05,0.1,0.15,0.1,64,85,68,0.05,0.1,0.15,0,4,0,0,85,85,2242,52,0,0,0,43,2242,52,148,0,,NaN,NaN,NaN,NaN,NaN,NaN,7,1,2020-11-10_09h25.37.286,Pirates_expt3,2020.1.2,Win32,60,NaN,NaN,NaN,NaN,NaN,NaN,NaN,,NaN,NaN,NaN,NaN,NaN,NaN,,NaN,NaN,NaN,NaN,NaN,NaN,"",,NaN,4,0,4,0,1,3,200,0,200,0,1,199,,NaN,200,0,200,0,1,199,space,0.372935,,NaN,,NaN
NaN,NaN,NaN,NaN,NaN,"",NaN,NaN,"",NaN,NaN,NaN,NaN,NaN,NaN,NaN,NaN,NaN,NaN,NaN,NaN,NaN,NaN,NaN,NaN,NaN,NaN,NaN,NaN,NaN,,NaN,NaN,NaN,NaN,NaN,,NaN,NaN,NaN,NaN,NaN,NaN,NaN,,NaN,NaN,NaN,NaN,NaN,NaN,7,1,2020-11-10_09h25.37.286,Pirates_expt3,2020.1.2,Win32,60,NaN,NaN,NaN,NaN,NaN,NaN,NaN,,NaN,NaN,NaN,NaN,NaN,NaN,,NaN,NaN,NaN,NaN,NaN,NaN,"",,NaN,NaN,NaN,NaN,NaN,NaN,NaN,NaN,NaN,NaN,NaN,NaN,NaN,,NaN,2,0,2,0,1,NaN,,NaN,,NaN,,NaN
NaN,NaN,NaN,NaN,NaN,"",NaN,NaN,"",NaN,NaN,1,1,43,2,64,73,68,0.05,0.1,0.15,0.1,64,73,68,0.05,0.1,0.15,2,3,0,0,73,73,2242,52,space,0.550325,0,43,2242,52,148,0,,NaN,NaN,NaN,NaN,NaN,NaN,7,1,2020-11-10_09h25.37.286,Pirates_expt3,2020.1.2,Win32,60,NaN,NaN,NaN,NaN,NaN,NaN,NaN,,NaN,NaN,NaN,NaN,NaN,NaN,,NaN,NaN,NaN,NaN,NaN,NaN,"",,NaN,4,0,4,0,1,3,200,0,200,0,1,199,,NaN,200,0,200,0,1,199,,NaN,,NaN,,NaN
NaN,NaN,NaN,NaN,NaN,"",NaN,NaN,"",NaN,NaN,1,1,43,2,66,73,73,0.05,0.1,0.15,0.1,66,73,73,0.05,0.1,0.15,0,4,0,0,73,73,2315,53,0,0,0,43,2315,53,147,0,,NaN,NaN,NaN,NaN,NaN,NaN,7,1,2020-11-10_09h25.37.286,Pirates_expt3,2020.1.2,Win32,60,NaN,NaN,NaN,NaN,NaN,NaN,NaN,,NaN,NaN,NaN,NaN,NaN,NaN,,NaN,NaN,NaN,NaN,NaN,NaN,"",,NaN,4,0,4,0,1,3,200,0,200,0,1,199,,NaN,200,0,200,0,1,199,space,0.550325,,NaN,,NaN
NaN,NaN,NaN,NaN,NaN,"",NaN,NaN,"",NaN,NaN,NaN,NaN,NaN,NaN,NaN,NaN,NaN,NaN,NaN,NaN,NaN,NaN,NaN,NaN,NaN,NaN,NaN,NaN,NaN,,NaN,NaN,NaN,NaN,NaN,,NaN,NaN,NaN,NaN,NaN,NaN,NaN,,NaN,NaN,NaN,NaN,NaN,NaN,7,1,2020-11-10_09h25.37.286,Pirates_expt3,2020.1.2,Win32,60,NaN,NaN,NaN,NaN,NaN,NaN,NaN,,NaN,NaN,NaN,NaN,NaN,NaN,,NaN,NaN,NaN,NaN,NaN,NaN,"",,NaN,NaN,NaN,NaN,NaN,NaN,NaN,NaN,NaN,NaN,NaN,NaN,NaN,,NaN,3,0,3,0,1,NaN,,NaN,,NaN,,NaN
NaN,NaN,NaN,NaN,NaN,"",NaN,NaN,"",NaN,NaN,1,1,43,2,66,59,73,0.05,0.1,0.15,0.1,66,59,73,0.05,0.1,0.15,2,3,0,0,59,59,2315,53,space,0.27389,0,43,2315,53,147,0,,NaN,NaN,NaN,NaN,NaN,NaN,7,1,2020-11-10_09h25.37.286,Pirates_expt3,2020.1.2,Win32,60,NaN,NaN,NaN,NaN,NaN,NaN,NaN,,NaN,NaN,NaN,NaN,NaN,NaN,,NaN,NaN,NaN,NaN,NaN,NaN,"",,NaN,4,0,4,0,1,3,200,0,200,0,1,199,,NaN,200,0,200,0,1,199,,NaN,,NaN,,NaN
NaN,NaN,NaN,NaN,NaN,"",NaN,NaN,"",NaN,NaN,1,1,43,2,68,59,77,0.05,0.1,0.15,0.1,68,59,77,0.05,0.1,0.15,0,4,0,0,59,59,2375,54,0,0,0,43,2375,54,146,0,,NaN,NaN,NaN,NaN,NaN,NaN,7,1,2020-11-10_09h25.37.286,Pirates_expt3,2020.1.2,Win32,60,NaN,NaN,NaN,NaN,NaN,NaN,NaN,,NaN,NaN,NaN,NaN,NaN,NaN,,NaN,NaN,NaN,NaN,NaN,NaN,"",,NaN,4,0,4,0,1,3,200,0,200,0,1,199,,NaN,200,0,200,0,1,199,space,0.27389,,NaN,,NaN
NaN,NaN,NaN,NaN,NaN,"",NaN,NaN,"",NaN,NaN,NaN,NaN,NaN,NaN,NaN,NaN,NaN,NaN,NaN,NaN,NaN,NaN,NaN,NaN,NaN,NaN,NaN,NaN,NaN,,NaN,NaN,NaN,NaN,NaN,,NaN,NaN,NaN,NaN,NaN,NaN,NaN,,NaN,NaN,NaN,NaN,NaN,NaN,7,1,2020-11-10_09h25.37.286,Pirates_expt3,2020.1.2,Win32,60,NaN,NaN,NaN,NaN,NaN,NaN,NaN,,NaN,NaN,NaN,NaN,NaN,NaN,,NaN,NaN,NaN,NaN,NaN,NaN,"",,NaN,NaN,NaN,NaN,NaN,NaN,NaN,NaN,NaN,NaN,NaN,NaN,NaN,,NaN,4,0,4,0,1,NaN,,NaN,,NaN,,NaN
NaN,NaN,NaN,NaN,NaN,"",NaN,NaN,"",NaN,NaN,1,1,43,2,68,46,77,0.05,0.1,0.15,0.1,68,46,77,0.05,0.1,0.15,2,3,0,0,46,46,2375,54,space,0.52601,0,43,2375,54,146,0,,NaN,NaN,NaN,NaN,NaN,NaN,7,1,2020-11-10_09h25.37.286,Pirates_expt3,2020.1.2,Win32,60,NaN,NaN,NaN,NaN,NaN,NaN,NaN,,NaN,NaN,NaN,NaN,NaN,NaN,,NaN,NaN,NaN,NaN,NaN,NaN,"",,NaN,4,0,4,0,1,3,200,0,200,0,1,199,,NaN,200,0,200,0,1,199,,NaN,,NaN,,NaN
NaN,NaN,NaN,NaN,NaN,"",NaN,NaN,"",NaN,NaN,1,1,44,2,69,46,80,0.05,0.1,0.15,0.1,69,46,80,0.05,0.1,0.15,0,4,0,0,46,46,2421,55,0,0,0,44,2421,55,145,0,,NaN,NaN,NaN,NaN,NaN,NaN,7,1,2020-11-10_09h25.37.286,Pirates_expt3,2020.1.2,Win32,60,NaN,NaN,NaN,NaN,NaN,NaN,NaN,,NaN,NaN,NaN,NaN,NaN,NaN,,NaN,NaN,NaN,NaN,NaN,NaN,"",,NaN,4,0,4,0,1,3,200,0,200,0,1,199,,NaN,200,0,200,0,1,199,space,0.52601,,NaN,,NaN
NaN,NaN,NaN,NaN,NaN,"",NaN,NaN,"",NaN,NaN,NaN,NaN,NaN,NaN,NaN,NaN,NaN,NaN,NaN,NaN,NaN,NaN,NaN,NaN,NaN,NaN,NaN,NaN,NaN,,NaN,NaN,NaN,NaN,NaN,,NaN,NaN,NaN,NaN,NaN,NaN,NaN,,NaN,NaN,NaN,NaN,NaN,NaN,7,1,2020-11-10_09h25.37.286,Pirates_expt3,2020.1.2,Win32,60,NaN,NaN,NaN,NaN,NaN,NaN,NaN,,NaN,NaN,NaN,NaN,NaN,NaN,,NaN,NaN,NaN,NaN,NaN,NaN,"",,NaN,NaN,NaN,NaN,NaN,NaN,NaN,NaN,NaN,NaN,NaN,NaN,NaN,,NaN,5,0,5,0,1,NaN,,NaN,,NaN,,NaN
NaN,NaN,NaN,NaN,NaN,"",NaN,NaN,"",NaN,NaN,1,1,44,2,69,33,80,0.05,0.1,0.15,0.1,69,33,80,0.05,0.1,0.15,2,3,0,0,33,33,2421,55,space,0.12771,0,44,2421,55,145,0,,NaN,NaN,NaN,NaN,NaN,NaN,7,1,2020-11-10_09h25.37.286,Pirates_expt3,2020.1.2,Win32,60,NaN,NaN,NaN,NaN,NaN,NaN,NaN,,NaN,NaN,NaN,NaN,NaN,NaN,,NaN,NaN,NaN,NaN,NaN,NaN,"",,NaN,4,0,4,0,1,3,200,0,200,0,1,199,,NaN,200,0,200,0,1,199,,NaN,,NaN,,NaN
NaN,NaN,NaN,NaN,NaN,"",NaN,NaN,"",NaN,NaN,1,1,43,2,71,33,83,0.05,0.1,0.15,0.1,71,33,83,0.05,0.1,0.15,0,4,0,0,33,33,2455,56,0,0,0,43,2455,56,144,0,,NaN,NaN,NaN,NaN,NaN,NaN,7,1,2020-11-10_09h25.37.286,Pirates_expt3,2020.1.2,Win32,60,NaN,NaN,NaN,NaN,NaN,NaN,NaN,,NaN,NaN,NaN,NaN,NaN,NaN,,NaN,NaN,NaN,NaN,NaN,NaN,"",,NaN,4,0,4,0,1,3,200,0,200,0,1,199,,NaN,200,0,200,0,1,199,space,0.12771,,NaN,,NaN
NaN,NaN,NaN,NaN,NaN,"",NaN,NaN,"",NaN,NaN,NaN,NaN,NaN,NaN,NaN,NaN,NaN,NaN,NaN,NaN,NaN,NaN,NaN,NaN,NaN,NaN,NaN,NaN,NaN,,NaN,NaN,NaN,NaN,NaN,,NaN,NaN,NaN,NaN,NaN,NaN,NaN,,NaN,NaN,NaN,NaN,NaN,NaN,7,1,2020-11-10_09h25.37.286,Pirates_expt3,2020.1.2,Win32,60,NaN,NaN,NaN,NaN,NaN,NaN,NaN,,NaN,NaN,NaN,NaN,NaN,NaN,,NaN,NaN,NaN,NaN,NaN,NaN,"",,NaN,NaN,NaN,NaN,NaN,NaN,NaN,NaN,NaN,NaN,NaN,NaN,NaN,,NaN,6,0,6,0,1,NaN,,NaN,,NaN,,NaN
NaN,NaN,NaN,NaN,NaN,"",NaN,NaN,"",NaN,NaN,1,1,43,2,71,23,83,0.05,0.1,0.15,0.1,71,23,83,0.05,0.1,0.15,3,3,0,0,23,23,2455,56,s,0.54086,7,43,2455,56,144,0,,NaN,NaN,NaN,NaN,NaN,NaN,7,1,2020-11-10_09h25.37.286,Pirates_expt3,2020.1.2,Win32,60,NaN,NaN,NaN,NaN,NaN,NaN,NaN,,NaN,NaN,NaN,NaN,NaN,NaN,,NaN,NaN,NaN,NaN,NaN,NaN,"",,NaN,4,0,4,0,1,3,200,0,200,0,1,199,,NaN,200,0,200,0,1,199,,NaN,,NaN,,NaN
NaN,NaN,NaN,NaN,NaN,"",NaN,NaN,"",NaN,NaN,1,1,43,2,72,31,86,0.05,0.1,0.15,0.1,72,31,86,0.05,0.1,0.15,0,4,0,0,31,23,2455,57,0,0,0,43,2455,57,143,14.211,,NaN,NaN,NaN,NaN,NaN,NaN,7,1,2020-11-10_09h25.37.286,Pirates_expt3,2020.1.2,Win32,60,NaN,NaN,NaN,NaN,NaN,NaN,NaN,,NaN,NaN,NaN,NaN,NaN,NaN,,NaN,NaN,NaN,NaN,NaN,NaN,"",,NaN,4,0,4,0,1,3,200,0,200,0,1,199,,NaN,200,0,200,0,1,199,s,0.54086,,NaN,,NaN
NaN,NaN,NaN,NaN,NaN,"",NaN,NaN,"",NaN,NaN,NaN,NaN,NaN,NaN,NaN,NaN,NaN,NaN,NaN,NaN,NaN,NaN,NaN,NaN,NaN,NaN,NaN,NaN,NaN,,NaN,NaN,NaN,NaN,NaN,,NaN,NaN,NaN,NaN,NaN,NaN,NaN,,NaN,NaN,NaN,NaN,NaN,NaN,7,1,2020-11-10_09h25.37.286,Pirates_expt3,2020.1.2,Win32,60,NaN,NaN,NaN,NaN,NaN,NaN,NaN,,NaN,NaN,NaN,NaN,NaN,NaN,,NaN,NaN,NaN,NaN,NaN,NaN,"",,NaN,NaN,NaN,NaN,NaN,NaN,NaN,11,0,11,0,1,NaN,,NaN,NaN,NaN,NaN,NaN,NaN,NaN,,NaN,,NaN,,NaN
NaN,NaN,NaN,NaN,NaN,"",NaN,NaN,"",NaN,NaN,1,1,43,3,72,31,86,0.05,0.1,0.15,0.15,72,31,86,0.05,0.1,0.15,1,1,k,1.38172,0,0,2455,58,N/A,0,0,43,2455,58,142,0,,NaN,NaN,NaN,NaN,NaN,NaN,7,1,2020-11-10_09h25.37.286,Pirates_expt3,2020.1.2,Win32,60,NaN,NaN,NaN,NaN,NaN,NaN,NaN,,NaN,NaN,NaN,NaN,NaN,NaN,,NaN,NaN,NaN,NaN,NaN,NaN,"",,NaN,4,0,4,0,1,3,200,0,200,0,1,199,,NaN,NaN,NaN,NaN,NaN,NaN,NaN,,NaN,,NaN,,NaN
NaN,NaN,NaN,NaN,NaN,"",NaN,NaN,"",NaN,NaN,1,1,43,3,73,38,88,0.05,0.1,0.15,0.15,73,38,88,0.05,0.1,0.15,0,2,0,0,0,0,2455,58,N/A,0,0,43,2455,58,142,0,,NaN,NaN,NaN,NaN,NaN,NaN,7,1,2020-11-10_09h25.37.286,Pirates_expt3,2020.1.2,Win32,60,NaN,NaN,NaN,NaN,NaN,NaN,NaN,,NaN,NaN,NaN,NaN,NaN,NaN,,NaN,NaN,NaN,NaN,NaN,NaN,"",,NaN,4,0,4,0,1,3,200,0,200,0,1,199,k,1.38172,NaN,NaN,NaN,NaN,NaN,NaN,,NaN,,NaN,,NaN
NaN,NaN,NaN,NaN,NaN,"",NaN,NaN,"",NaN,NaN,1,1,42,3,73,38,88,0.05,0.1,0.15,0.15,73,38,88,0.05,0.1,0.15,2,3,0,0,88,88,2455,58,space,0.560535,0,42,2455,58,142,0,,NaN,NaN,NaN,NaN,NaN,NaN,7,1,2020-11-10_09h25.37.286,Pirates_expt3,2020.1.2,Win32,60,NaN,NaN,NaN,NaN,NaN,NaN,NaN,,NaN,NaN,NaN,NaN,NaN,NaN,,NaN,NaN,NaN,NaN,NaN,NaN,"",,NaN,4,0,4,0,1,3,200,0,200,0,1,199,,NaN,200,0,200,0,1,199,,NaN,,NaN,,NaN
NaN,NaN,NaN,NaN,NaN,"",NaN,NaN,"",NaN,NaN,1,1,43,3,75,44,88,0.05,0.1,0.15,0.15,75,44,88,0.05,0.1,0.15,0,4,0,0,88,88,2543,59,0,0,0,43,2543,59,141,0,,NaN,NaN,NaN,NaN,NaN,NaN,7,1,2020-11-10_09h25.37.286,Pirates_expt3,2020.1.2,Win32,60,NaN,NaN,NaN,NaN,NaN,NaN,NaN,,NaN,NaN,NaN,NaN,NaN,NaN,,NaN,NaN,NaN,NaN,NaN,NaN,"",,NaN,4,0,4,0,1,3,200,0,200,0,1,199,,NaN,200,0,200,0,1,199,space,0.560535,,NaN,,NaN
NaN,NaN,NaN,NaN,NaN,"",NaN,NaN,"",NaN,NaN,NaN,NaN,NaN,NaN,NaN,NaN,NaN,NaN,NaN,NaN,NaN,NaN,NaN,NaN,NaN,NaN,NaN,NaN,NaN,,NaN,NaN,NaN,NaN,NaN,,NaN,NaN,NaN,NaN,NaN,NaN,NaN,,NaN,NaN,NaN,NaN,NaN,NaN,7,1,2020-11-10_09h25.37.286,Pirates_expt3,2020.1.2,Win32,60,NaN,NaN,NaN,NaN,NaN,NaN,NaN,,NaN,NaN,NaN,NaN,NaN,NaN,,NaN,NaN,NaN,NaN,NaN,NaN,"",,NaN,NaN,NaN,NaN,NaN,NaN,NaN,NaN,NaN,NaN,NaN,NaN,NaN,,NaN,0,0,0,0,1,NaN,,NaN,,NaN,,NaN
NaN,NaN,NaN,NaN,NaN,"",NaN,NaN,"",NaN,NaN,1,1,43,3,75,44,83,0.05,0.1,0.15,0.15,75,44,83,0.05,0.1,0.15,2,3,0,0,83,83,2543,59,space,0.40894,0,43,2543,59,141,0,,NaN,NaN,NaN,NaN,NaN,NaN,7,1,2020-11-10_09h25.37.286,Pirates_expt3,2020.1.2,Win32,60,NaN,NaN,NaN,NaN,NaN,NaN,NaN,,NaN,NaN,NaN,NaN,NaN,NaN,,NaN,NaN,NaN,NaN,NaN,NaN,"",,NaN,4,0,4,0,1,3,200,0,200,0,1,199,,NaN,200,0,200,0,1,199,,NaN,,NaN,,NaN
NaN,NaN,NaN,NaN,NaN,"",NaN,NaN,"",NaN,NaN,1,1,43,3,76,49,83,0.05,0.1,0.15,0.15,76,49,83,0.05,0.1,0.15,0,4,0,0,83,83,2627,60,0,0,0,43,2627,60,140,0,,NaN,NaN,NaN,NaN,NaN,NaN,7,1,2020-11-10_09h25.37.286,Pirates_expt3,2020.1.2,Win32,60,NaN,NaN,NaN,NaN,NaN,NaN,NaN,,NaN,NaN,NaN,NaN,NaN,NaN,,NaN,NaN,NaN,NaN,NaN,NaN,"",,NaN,4,0,4,0,1,3,200,0,200,0,1,199,,NaN,200,0,200,0,1,199,space,0.40894,,NaN,,NaN
NaN,NaN,NaN,NaN,NaN,"",NaN,NaN,"",NaN,NaN,NaN,NaN,NaN,NaN,NaN,NaN,NaN,NaN,NaN,NaN,NaN,NaN,NaN,NaN,NaN,NaN,NaN,NaN,NaN,,NaN,NaN,NaN,NaN,NaN,,NaN,NaN,NaN,NaN,NaN,NaN,NaN,,NaN,NaN,NaN,NaN,NaN,NaN,7,1,2020-11-10_09h25.37.286,Pirates_expt3,2020.1.2,Win32,60,NaN,NaN,NaN,NaN,NaN,NaN,NaN,,NaN,NaN,NaN,NaN,NaN,NaN,,NaN,NaN,NaN,NaN,NaN,NaN,"",,NaN,NaN,NaN,NaN,NaN,NaN,NaN,NaN,NaN,NaN,NaN,NaN,NaN,,NaN,1,0,1,0,1,NaN,,NaN,,NaN,,NaN
NaN,NaN,NaN,NaN,NaN,"",NaN,NaN,"",NaN,NaN,1,1,43,3,76,49,75,0.05,0.1,0.15,0.15,76,49,75,0.05,0.1,0.15,2,3,0,0,75,75,2627,60,space,0.48895,0,43,2627,60,140,0,,NaN,NaN,NaN,NaN,NaN,NaN,7,1,2020-11-10_09h25.37.286,Pirates_expt3,2020.1.2,Win32,60,NaN,NaN,NaN,NaN,NaN,NaN,NaN,,NaN,NaN,NaN,NaN,NaN,NaN,,NaN,NaN,NaN,NaN,NaN,NaN,"",,NaN,4,0,4,0,1,3,200,0,200,0,1,199,,NaN,200,0,200,0,1,199,,NaN,,NaN,,NaN
NaN,NaN,NaN,NaN,NaN,"",NaN,NaN,"",NaN,NaN,1,1,44,3,77,54,75,0.05,0.1,0.15,0.15,77,54,75,0.05,0.1,0.15,0,4,0,0,75,75,2702,61,0,0,0,44,2702,61,139,0,,NaN,NaN,NaN,NaN,NaN,NaN,7,1,2020-11-10_09h25.37.286,Pirates_expt3,2020.1.2,Win32,60,NaN,NaN,NaN,NaN,NaN,NaN,NaN,,NaN,NaN,NaN,NaN,NaN,NaN,,NaN,NaN,NaN,NaN,NaN,NaN,"",,NaN,4,0,4,0,1,3,200,0,200,0,1,199,,NaN,200,0,200,0,1,199,space,0.48895,,NaN,,NaN
NaN,NaN,NaN,NaN,NaN,"",NaN,NaN,"",NaN,NaN,NaN,NaN,NaN,NaN,NaN,NaN,NaN,NaN,NaN,NaN,NaN,NaN,NaN,NaN,NaN,NaN,NaN,NaN,NaN,,NaN,NaN,NaN,NaN,NaN,,NaN,NaN,NaN,NaN,NaN,NaN,NaN,,NaN,NaN,NaN,NaN,NaN,NaN,7,1,2020-11-10_09h25.37.286,Pirates_expt3,2020.1.2,Win32,60,NaN,NaN,NaN,NaN,NaN,NaN,NaN,,NaN,NaN,NaN,NaN,NaN,NaN,,NaN,NaN,NaN,NaN,NaN,NaN,"",,NaN,NaN,NaN,NaN,NaN,NaN,NaN,NaN,NaN,NaN,NaN,NaN,NaN,,NaN,2,0,2,0,1,NaN,,NaN,,NaN,,NaN
NaN,NaN,NaN,NaN,NaN,"",NaN,NaN,"",NaN,NaN,1,1,44,3,77,54,64,0.05,0.1,0.15,0.15,77,54,64,0.05,0.1,0.15,2,3,0,0,64,64,2702,61,space,0.21035,0,44,2702,61,139,0,,NaN,NaN,NaN,NaN,NaN,NaN,7,1,2020-11-10_09h25.37.286,Pirates_expt3,2020.1.2,Win32,60,NaN,NaN,NaN,NaN,NaN,NaN,NaN,,NaN,NaN,NaN,NaN,NaN,NaN,,NaN,NaN,NaN,NaN,NaN,NaN,"",,NaN,4,0,4,0,1,3,200,0,200,0,1,199,,NaN,200,0,200,0,1,199,,NaN,,NaN,,NaN
NaN,NaN,NaN,NaN,NaN,"",NaN,NaN,"",NaN,NaN,1,1,44,3,78,59,64,0.05,0.1,0.15,0.15,78,59,64,0.05,0.1,0.15,0,4,0,0,64,64,2767,62,0,0,0,44,2767,62,138,0,,NaN,NaN,NaN,NaN,NaN,NaN,7,1,2020-11-10_09h25.37.286,Pirates_expt3,2020.1.2,Win32,60,NaN,NaN,NaN,NaN,NaN,NaN,NaN,,NaN,NaN,NaN,NaN,NaN,NaN,,NaN,NaN,NaN,NaN,NaN,NaN,"",,NaN,4,0,4,0,1,3,200,0,200,0,1,199,,NaN,200,0,200,0,1,199,space,0.21035,,NaN,,NaN
NaN,NaN,NaN,NaN,NaN,"",NaN,NaN,"",NaN,NaN,NaN,NaN,NaN,NaN,NaN,NaN,NaN,NaN,NaN,NaN,NaN,NaN,NaN,NaN,NaN,NaN,NaN,NaN,NaN,,NaN,NaN,NaN,NaN,NaN,,NaN,NaN,NaN,NaN,NaN,NaN,NaN,,NaN,NaN,NaN,NaN,NaN,NaN,7,1,2020-11-10_09h25.37.286,Pirates_expt3,2020.1.2,Win32,60,NaN,NaN,NaN,NaN,NaN,NaN,NaN,,NaN,NaN,NaN,NaN,NaN,NaN,,NaN,NaN,NaN,NaN,NaN,NaN,"",,NaN,NaN,NaN,NaN,NaN,NaN,NaN,NaN,NaN,NaN,NaN,NaN,NaN,,NaN,3,0,3,0,1,NaN,,NaN,,NaN,,NaN
NaN,NaN,NaN,NaN,NaN,"",NaN,NaN,"",NaN,NaN,1,1,44,3,78,59,52,0.05,0.1,0.15,0.15,78,59,52,0.05,0.1,0.15,2,3,0,0,52,52,2767,62,space,0.780385,0,44,2767,62,138,0,,NaN,NaN,NaN,NaN,NaN,NaN,7,1,2020-11-10_09h25.37.286,Pirates_expt3,2020.1.2,Win32,60,NaN,NaN,NaN,NaN,NaN,NaN,NaN,,NaN,NaN,NaN,NaN,NaN,NaN,,NaN,NaN,NaN,NaN,NaN,NaN,"",,NaN,4,0,4,0,1,3,200,0,200,0,1,199,,NaN,200,0,200,0,1,199,,NaN,,NaN,,NaN
NaN,NaN,NaN,NaN,NaN,"",NaN,NaN,"",NaN,NaN,1,1,44,3,79,63,52,0.05,0.1,0.15,0.15,79,63,52,0.05,0.1,0.15,0,4,0,0,52,52,2820,63,0,0,0,44,2820,63,137,0,,NaN,NaN,NaN,NaN,NaN,NaN,7,1,2020-11-10_09h25.37.286,Pirates_expt3,2020.1.2,Win32,60,NaN,NaN,NaN,NaN,NaN,NaN,NaN,,NaN,NaN,NaN,NaN,NaN,NaN,,NaN,NaN,NaN,NaN,NaN,NaN,"",,NaN,4,0,4,0,1,3,200,0,200,0,1,199,,NaN,200,0,200,0,1,199,space,0.780385,,NaN,,NaN
NaN,NaN,NaN,NaN,NaN,"",NaN,NaN,"",NaN,NaN,NaN,NaN,NaN,NaN,NaN,NaN,NaN,NaN,NaN,NaN,NaN,NaN,NaN,NaN,NaN,NaN,NaN,NaN,NaN,,NaN,NaN,NaN,NaN,NaN,,NaN,NaN,NaN,NaN,NaN,NaN,NaN,,NaN,NaN,NaN,NaN,NaN,NaN,7,1,2020-11-10_09h25.37.286,Pirates_expt3,2020.1.2,Win32,60,NaN,NaN,NaN,NaN,NaN,NaN,NaN,,NaN,NaN,NaN,NaN,NaN,NaN,,NaN,NaN,NaN,NaN,NaN,NaN,"",,NaN,NaN,NaN,NaN,NaN,NaN,NaN,NaN,NaN,NaN,NaN,NaN,NaN,,NaN,4,0,4,0,1,NaN,,NaN,,NaN,,NaN
NaN,NaN,NaN,NaN,NaN,"",NaN,NaN,"",NaN,NaN,1,1,44,3,79,63,40,0.05,0.1,0.15,0.15,79,63,40,0.05,0.1,0.15,2,3,0,0,40,40,2820,63,space,0.027795,0,44,2820,63,137,0,,NaN,NaN,NaN,NaN,NaN,NaN,7,1,2020-11-10_09h25.37.286,Pirates_expt3,2020.1.2,Win32,60,NaN,NaN,NaN,NaN,NaN,NaN,NaN,,NaN,NaN,NaN,NaN,NaN,NaN,,NaN,NaN,NaN,NaN,NaN,NaN,"",,NaN,4,0,4,0,1,3,200,0,200,0,1,199,,NaN,200,0,200,0,1,199,,NaN,,NaN,,NaN
NaN,NaN,NaN,NaN,NaN,"",NaN,NaN,"",NaN,NaN,1,1,44,3,80,67,40,0.05,0.1,0.15,0.15,80,67,40,0.05,0.1,0.15,0,4,0,0,40,40,2861,64,0,0,0,44,2861,64,136,0,,NaN,NaN,NaN,NaN,NaN,NaN,7,1,2020-11-10_09h25.37.286,Pirates_expt3,2020.1.2,Win32,60,NaN,NaN,NaN,NaN,NaN,NaN,NaN,,NaN,NaN,NaN,NaN,NaN,NaN,,NaN,NaN,NaN,NaN,NaN,NaN,"",,NaN,4,0,4,0,1,3,200,0,200,0,1,199,,NaN,200,0,200,0,1,199,space,0.027795,,NaN,,NaN
NaN,NaN,NaN,NaN,NaN,"",NaN,NaN,"",NaN,NaN,NaN,NaN,NaN,NaN,NaN,NaN,NaN,NaN,NaN,NaN,NaN,NaN,NaN,NaN,NaN,NaN,NaN,NaN,NaN,,NaN,NaN,NaN,NaN,NaN,,NaN,NaN,NaN,NaN,NaN,NaN,NaN,,NaN,NaN,NaN,NaN,NaN,NaN,7,1,2020-11-10_09h25.37.286,Pirates_expt3,2020.1.2,Win32,60,NaN,NaN,NaN,NaN,NaN,NaN,NaN,,NaN,NaN,NaN,NaN,NaN,NaN,,NaN,NaN,NaN,NaN,NaN,NaN,"",,NaN,NaN,NaN,NaN,NaN,NaN,NaN,NaN,NaN,NaN,NaN,NaN,NaN,,NaN,5,0,5,0,1,NaN,,NaN,,NaN,,NaN
NaN,NaN,NaN,NaN,NaN,"",NaN,NaN,"",NaN,NaN,1,1,44,3,80,67,30,0.05,0.1,0.15,0.15,80,67,30,0.05,0.1,0.15,3,3,0,0,30,30,2861,64,s,0.79261,6,44,2861,64,136,0,,NaN,NaN,NaN,NaN,NaN,NaN,7,1,2020-11-10_09h25.37.286,Pirates_expt3,2020.1.2,Win32,60,NaN,NaN,NaN,NaN,NaN,NaN,NaN,,NaN,NaN,NaN,NaN,NaN,NaN,,NaN,NaN,NaN,NaN,NaN,NaN,"",,NaN,4,0,4,0,1,3,200,0,200,0,1,199,,NaN,200,0,200,0,1,199,,NaN,,NaN,,NaN
NaN,NaN,NaN,NaN,NaN,"",NaN,NaN,"",NaN,NaN,1,1,44,3,81,70,40,0.05,0.1,0.15,0.15,81,70,40,0.05,0.1,0.15,0,4,0,0,40,30,2861,65,0,0,0,44,2861,65,135,12.582,,NaN,NaN,NaN,NaN,NaN,NaN,7,1,2020-11-10_09h25.37.286,Pirates_expt3,2020.1.2,Win32,60,NaN,NaN,NaN,NaN,NaN,NaN,NaN,,NaN,NaN,NaN,NaN,NaN,NaN,,NaN,NaN,NaN,NaN,NaN,NaN,"",,NaN,4,0,4,0,1,3,200,0,200,0,1,199,,NaN,200,0,200,0,1,199,s,0.79261,,NaN,,NaN
NaN,NaN,NaN,NaN,NaN,"",NaN,NaN,"",NaN,NaN,NaN,NaN,NaN,NaN,NaN,NaN,NaN,NaN,NaN,NaN,NaN,NaN,NaN,NaN,NaN,NaN,NaN,NaN,NaN,,NaN,NaN,NaN,NaN,NaN,,NaN,NaN,NaN,NaN,NaN,NaN,NaN,,NaN,NaN,NaN,NaN,NaN,NaN,7,1,2020-11-10_09h25.37.286,Pirates_expt3,2020.1.2,Win32,60,NaN,NaN,NaN,NaN,NaN,NaN,NaN,,NaN,NaN,NaN,NaN,NaN,NaN,,NaN,NaN,NaN,NaN,NaN,NaN,"",,NaN,NaN,NaN,NaN,NaN,NaN,NaN,12,0,12,0,1,NaN,,NaN,NaN,NaN,NaN,NaN,NaN,NaN,,NaN,,NaN,,NaN
NaN,NaN,NaN,NaN,NaN,"",NaN,NaN,"",NaN,NaN,1,1,44,1,81,70,40,0.05,0.1,0.15,0.05,81,70,40,0.05,0.1,0.15,1,1,f,1.94253,0,0,2861,66,N/A,0,0,44,2861,66,134,0,,NaN,NaN,NaN,NaN,NaN,NaN,7,1,2020-11-10_09h25.37.286,Pirates_expt3,2020.1.2,Win32,60,NaN,NaN,NaN,NaN,NaN,NaN,NaN,,NaN,NaN,NaN,NaN,NaN,NaN,,NaN,NaN,NaN,NaN,NaN,NaN,"",,NaN,4,0,4,0,1,3,200,0,200,0,1,199,,NaN,NaN,NaN,NaN,NaN,NaN,NaN,,NaN,,NaN,,NaN
NaN,NaN,NaN,NaN,NaN,"",NaN,NaN,"",NaN,NaN,1,1,44,1,82,73,49,0.05,0.1,0.15,0.05,82,73,49,0.05,0.1,0.15,0,2,0,0,0,0,2861,66,N/A,0,0,44,2861,66,134,0,,NaN,NaN,NaN,NaN,NaN,NaN,7,1,2020-11-10_09h25.37.286,Pirates_expt3,2020.1.2,Win32,60,NaN,NaN,NaN,NaN,NaN,NaN,NaN,,NaN,NaN,NaN,NaN,NaN,NaN,,NaN,NaN,NaN,NaN,NaN,NaN,"",,NaN,4,0,4,0,1,3,200,0,200,0,1,199,f,1.94253,NaN,NaN,NaN,NaN,NaN,NaN,,NaN,,NaN,,NaN
NaN,NaN,NaN,NaN,NaN,"",NaN,NaN,"",NaN,NaN,1,1,43,1,82,73,49,0.05,0.1,0.15,0.05,82,73,49,0.05,0.1,0.15,2,3,0,0,82,82,2861,66,space,1.203545,0,43,2861,66,134,0,,NaN,NaN,NaN,NaN,NaN,NaN,7,1,2020-11-10_09h25.37.286,Pirates_expt3,2020.1.2,Win32,60,NaN,NaN,NaN,NaN,NaN,NaN,NaN,,NaN,NaN,NaN,NaN,NaN,NaN,,NaN,NaN,NaN,NaN,NaN,NaN,"",,NaN,4,0,4,0,1,3,200,0,200,0,1,199,,NaN,200,0,200,0,1,199,,NaN,,NaN,,NaN
NaN,NaN,NaN,NaN,NaN,"",NaN,NaN,"",NaN,NaN,1,1,43,1,82,76,57,0.05,0.1,0.15,0.05,82,76,57,0.05,0.1,0.15,0,4,0,0,82,82,2944,67,0,0,0,43,2944,67,133,0,,NaN,NaN,NaN,NaN,NaN,NaN,7,1,2020-11-10_09h25.37.286,Pirates_expt3,2020.1.2,Win32,60,NaN,NaN,NaN,NaN,NaN,NaN,NaN,,NaN,NaN,NaN,NaN,NaN,NaN,,NaN,NaN,NaN,NaN,NaN,NaN,"",,NaN,4,0,4,0,1,3,200,0,200,0,1,199,,NaN,200,0,200,0,1,199,space,1.203545,,NaN,,NaN
NaN,NaN,NaN,NaN,NaN,"",NaN,NaN,"",NaN,NaN,NaN,NaN,NaN,NaN,NaN,NaN,NaN,NaN,NaN,NaN,NaN,NaN,NaN,NaN,NaN,NaN,NaN,NaN,NaN,,NaN,NaN,NaN,NaN,NaN,,NaN,NaN,NaN,NaN,NaN,NaN,NaN,,NaN,NaN,NaN,NaN,NaN,NaN,7,1,2020-11-10_09h25.37.286,Pirates_expt3,2020.1.2,Win32,60,NaN,NaN,NaN,NaN,NaN,NaN,NaN,,NaN,NaN,NaN,NaN,NaN,NaN,,NaN,NaN,NaN,NaN,NaN,NaN,"",,NaN,NaN,NaN,NaN,NaN,NaN,NaN,NaN,NaN,NaN,NaN,NaN,NaN,,NaN,0,0,0,0,1,NaN,,NaN,,NaN,,NaN
NaN,NaN,NaN,NaN,NaN,"",NaN,NaN,"",NaN,NaN,1,1,43,1,78,76,57,0.05,0.1,0.15,0.05,78,76,57,0.05,0.1,0.15,2,3,0,0,78,78,2944,67,space,2.44249,0,43,2944,67,133,0,,NaN,NaN,NaN,NaN,NaN,NaN,7,1,2020-11-10_09h25.37.286,Pirates_expt3,2020.1.2,Win32,60,NaN,NaN,NaN,NaN,NaN,NaN,NaN,,NaN,NaN,NaN,NaN,NaN,NaN,,NaN,NaN,NaN,NaN,NaN,NaN,"",,NaN,4,0,4,0,1,3,200,0,200,0,1,199,,NaN,200,0,200,0,1,199,,NaN,,NaN,,NaN
NaN,NaN,NaN,NaN,NaN,"",NaN,NaN,"",NaN,NaN,1,1,44,1,78,78,63,0.05,0.1,0.15,0.05,78,78,63,0.05,0.1,0.15,0,4,0,0,78,78,3022,68,0,0,0,44,3022,68,132,0,,NaN,NaN,NaN,NaN,NaN,NaN,7,1,2020-11-10_09h25.37.286,Pirates_expt3,2020.1.2,Win32,60,NaN,NaN,NaN,NaN,NaN,NaN,NaN,,NaN,NaN,NaN,NaN,NaN,NaN,,NaN,NaN,NaN,NaN,NaN,NaN,"",,NaN,4,0,4,0,1,3,200,0,200,0,1,199,,NaN,200,0,200,0,1,199,space,2.44249,,NaN,,NaN
NaN,NaN,NaN,NaN,NaN,"",NaN,NaN,"",NaN,NaN,NaN,NaN,NaN,NaN,NaN,NaN,NaN,NaN,NaN,NaN,NaN,NaN,NaN,NaN,NaN,NaN,NaN,NaN,NaN,,NaN,NaN,NaN,NaN,NaN,,NaN,NaN,NaN,NaN,NaN,NaN,NaN,,NaN,NaN,NaN,NaN,NaN,NaN,7,1,2020-11-10_09h25.37.286,Pirates_expt3,2020.1.2,Win32,60,NaN,NaN,NaN,NaN,NaN,NaN,NaN,,NaN,NaN,NaN,NaN,NaN,NaN,,NaN,NaN,NaN,NaN,NaN,NaN,"",,NaN,NaN,NaN,NaN,NaN,NaN,NaN,NaN,NaN,NaN,NaN,NaN,NaN,,NaN,1,0,1,0,1,NaN,,NaN,,NaN,,NaN
NaN,NaN,NaN,NaN,NaN,"",NaN,NaN,"",NaN,NaN,1,1,44,1,70,78,63,0.05,0.1,0.15,0.05,70,78,63,0.05,0.1,0.15,2,3,0,0,70,70,3022,68,space,0.961155,0,44,3022,68,132,0,,NaN,NaN,NaN,NaN,NaN,NaN,7,1,2020-11-10_09h25.37.286,Pirates_expt3,2020.1.2,Win32,60,NaN,NaN,NaN,NaN,NaN,NaN,NaN,,NaN,NaN,NaN,NaN,NaN,NaN,,NaN,NaN,NaN,NaN,NaN,NaN,"",,NaN,4,0,4,0,1,3,200,0,200,0,1,199,,NaN,200,0,200,0,1,199,,NaN,,NaN,,NaN
NaN,NaN,NaN,NaN,NaN,"",NaN,NaN,"",NaN,NaN,1,1,44,1,70,80,68,0.05,0.1,0.15,0.05,70,80,68,0.05,0.1,0.15,0,4,0,0,70,70,3093,69,0,0,0,44,3093,69,131,0,,NaN,NaN,NaN,NaN,NaN,NaN,7,1,2020-11-10_09h25.37.286,Pirates_expt3,2020.1.2,Win32,60,NaN,NaN,NaN,NaN,NaN,NaN,NaN,,NaN,NaN,NaN,NaN,NaN,NaN,,NaN,NaN,NaN,NaN,NaN,NaN,"",,NaN,4,0,4,0,1,3,200,0,200,0,1,199,,NaN,200,0,200,0,1,199,space,0.961155,,NaN,,NaN
NaN,NaN,NaN,NaN,NaN,"",NaN,NaN,"",NaN,NaN,NaN,NaN,NaN,NaN,NaN,NaN,NaN,NaN,NaN,NaN,NaN,NaN,NaN,NaN,NaN,NaN,NaN,NaN,NaN,,NaN,NaN,NaN,NaN,NaN,,NaN,NaN,NaN,NaN,NaN,NaN,NaN,,NaN,NaN,NaN,NaN,NaN,NaN,7,1,2020-11-10_09h25.37.286,Pirates_expt3,2020.1.2,Win32,60,NaN,NaN,NaN,NaN,NaN,NaN,NaN,,NaN,NaN,NaN,NaN,NaN,NaN,,NaN,NaN,NaN,NaN,NaN,NaN,"",,NaN,NaN,NaN,NaN,NaN,NaN,NaN,NaN,NaN,NaN,NaN,NaN,NaN,,NaN,2,0,2,0,1,NaN,,NaN,,NaN,,NaN
NaN,NaN,NaN,NaN,NaN,"",NaN,NaN,"",NaN,NaN,1,1,44,1,60,80,68,0.05,0.1,0.15,0.05,60,80,68,0.05,0.1,0.15,2,3,0,0,60,60,3093,69,space,1.08449,0,44,3093,69,131,0,,NaN,NaN,NaN,NaN,NaN,NaN,7,1,2020-11-10_09h25.37.286,Pirates_expt3,2020.1.2,Win32,60,NaN,NaN,NaN,NaN,NaN,NaN,NaN,,NaN,NaN,NaN,NaN,NaN,NaN,,NaN,NaN,NaN,NaN,NaN,NaN,"",,NaN,4,0,4,0,1,3,200,0,200,0,1,199,,NaN,200,0,200,0,1,199,,NaN,,NaN,,NaN
NaN,NaN,NaN,NaN,NaN,"",NaN,NaN,"",NaN,NaN,1,1,45,1,60,82,73,0.05,0.1,0.15,0.05,60,82,73,0.05,0.1,0.15,0,4,0,0,60,60,3154,70,0,0,0,45,3154,70,130,0,,NaN,NaN,NaN,NaN,NaN,NaN,7,1,2020-11-10_09h25.37.286,Pirates_expt3,2020.1.2,Win32,60,NaN,NaN,NaN,NaN,NaN,NaN,NaN,,NaN,NaN,NaN,NaN,NaN,NaN,,NaN,NaN,NaN,NaN,NaN,NaN,"",,NaN,4,0,4,0,1,3,200,0,200,0,1,199,,NaN,200,0,200,0,1,199,space,1.08449,,NaN,,NaN
NaN,NaN,NaN,NaN,NaN,"",NaN,NaN,"",NaN,NaN,NaN,NaN,NaN,NaN,NaN,NaN,NaN,NaN,NaN,NaN,NaN,NaN,NaN,NaN,NaN,NaN,NaN,NaN,NaN,,NaN,NaN,NaN,NaN,NaN,,NaN,NaN,NaN,NaN,NaN,NaN,NaN,,NaN,NaN,NaN,NaN,NaN,NaN,7,1,2020-11-10_09h25.37.286,Pirates_expt3,2020.1.2,Win32,60,NaN,NaN,NaN,NaN,NaN,NaN,NaN,,NaN,NaN,NaN,NaN,NaN,NaN,,NaN,NaN,NaN,NaN,NaN,NaN,"",,NaN,NaN,NaN,NaN,NaN,NaN,NaN,NaN,NaN,NaN,NaN,NaN,NaN,,NaN,3,0,3,0,1,NaN,,NaN,,NaN,,NaN
NaN,NaN,NaN,NaN,NaN,"",NaN,NaN,"",NaN,NaN,1,1,45,1,49,82,73,0.05,0.1,0.15,0.05,49,82,73,0.05,0.1,0.15,2,3,0,0,49,49,3154,70,space,0.493735,0,45,3154,70,130,0,,NaN,NaN,NaN,NaN,NaN,NaN,7,1,2020-11-10_09h25.37.286,Pirates_expt3,2020.1.2,Win32,60,NaN,NaN,NaN,NaN,NaN,NaN,NaN,,NaN,NaN,NaN,NaN,NaN,NaN,,NaN,NaN,NaN,NaN,NaN,NaN,"",,NaN,4,0,4,0,1,3,200,0,200,0,1,199,,NaN,200,0,200,0,1,199,,NaN,,NaN,,NaN
NaN,NaN,NaN,NaN,NaN,"",NaN,NaN,"",NaN,NaN,1,1,45,1,49,84,77,0.05,0.1,0.15,0.05,49,84,77,0.05,0.1,0.15,0,4,0,0,49,49,3203,71,0,0,0,45,3203,71,129,0,,NaN,NaN,NaN,NaN,NaN,NaN,7,1,2020-11-10_09h25.37.286,Pirates_expt3,2020.1.2,Win32,60,NaN,NaN,NaN,NaN,NaN,NaN,NaN,,NaN,NaN,NaN,NaN,NaN,NaN,,NaN,NaN,NaN,NaN,NaN,NaN,"",,NaN,4,0,4,0,1,3,200,0,200,0,1,199,,NaN,200,0,200,0,1,199,space,0.493735,,NaN,,NaN
NaN,NaN,NaN,NaN,NaN,"",NaN,NaN,"",NaN,NaN,NaN,NaN,NaN,NaN,NaN,NaN,NaN,NaN,NaN,NaN,NaN,NaN,NaN,NaN,NaN,NaN,NaN,NaN,NaN,,NaN,NaN,NaN,NaN,NaN,,NaN,NaN,NaN,NaN,NaN,NaN,NaN,,NaN,NaN,NaN,NaN,NaN,NaN,7,1,2020-11-10_09h25.37.286,Pirates_expt3,2020.1.2,Win32,60,NaN,NaN,NaN,NaN,NaN,NaN,NaN,,NaN,NaN,NaN,NaN,NaN,NaN,,NaN,NaN,NaN,NaN,NaN,NaN,"",,NaN,NaN,NaN,NaN,NaN,NaN,NaN,NaN,NaN,NaN,NaN,NaN,NaN,,NaN,4,0,4,0,1,NaN,,NaN,,NaN,,NaN
NaN,NaN,NaN,NaN,NaN,"",NaN,NaN,"",NaN,NaN,1,1,45,1,38,84,77,0.05,0.1,0.15,0.05,38,84,77,0.05,0.1,0.15,3,3,0,0,38,38,3203,71,s,1.59786,5,45,3203,71,129,0,,NaN,NaN,NaN,NaN,NaN,NaN,7,1,2020-11-10_09h25.37.286,Pirates_expt3,2020.1.2,Win32,60,NaN,NaN,NaN,NaN,NaN,NaN,NaN,,NaN,NaN,NaN,NaN,NaN,NaN,,NaN,NaN,NaN,NaN,NaN,NaN,"",,NaN,4,0,4,0,1,3,200,0,200,0,1,199,,NaN,200,0,200,0,1,199,,NaN,,NaN,,NaN
NaN,NaN,NaN,NaN,NaN,"",NaN,NaN,"",NaN,NaN,1,1,44,1,41,85,80,0.05,0.1,0.15,0.05,41,85,80,0.05,0.1,0.15,0,4,0,0,41,38,3203,72,0,0,0,44,3203,72,128,15.512,,NaN,NaN,NaN,NaN,NaN,NaN,7,1,2020-11-10_09h25.37.286,Pirates_expt3,2020.1.2,Win32,60,NaN,NaN,NaN,NaN,NaN,NaN,NaN,,NaN,NaN,NaN,NaN,NaN,NaN,,NaN,NaN,NaN,NaN,NaN,NaN,"",,NaN,4,0,4,0,1,3,200,0,200,0,1,199,,NaN,200,0,200,0,1,199,s,1.59786,,NaN,,NaN
NaN,NaN,NaN,NaN,NaN,"",NaN,NaN,"",NaN,NaN,NaN,NaN,NaN,NaN,NaN,NaN,NaN,NaN,NaN,NaN,NaN,NaN,NaN,NaN,NaN,NaN,NaN,NaN,NaN,,NaN,NaN,NaN,NaN,NaN,,NaN,NaN,NaN,NaN,NaN,NaN,NaN,,NaN,NaN,NaN,NaN,NaN,NaN,7,1,2020-11-10_09h25.37.286,Pirates_expt3,2020.1.2,Win32,60,NaN,NaN,NaN,NaN,NaN,NaN,NaN,,NaN,NaN,NaN,NaN,NaN,NaN,,NaN,NaN,NaN,NaN,NaN,NaN,"",,NaN,NaN,NaN,NaN,NaN,NaN,NaN,13,0,13,0,1,NaN,,NaN,NaN,NaN,NaN,NaN,NaN,NaN,,NaN,,NaN,,NaN
NaN,NaN,NaN,NaN,NaN,"",NaN,NaN,"",NaN,NaN,1,1,44,3,41,85,80,0.05,0.1,0.15,0.15,41,85,80,0.05,0.1,0.15,1,1,k,1.19967,0,0,3203,73,N/A,0,0,44,3203,73,127,0,,NaN,NaN,NaN,NaN,NaN,NaN,7,1,2020-11-10_09h25.37.286,Pirates_expt3,2020.1.2,Win32,60,NaN,NaN,NaN,NaN,NaN,NaN,NaN,,NaN,NaN,NaN,NaN,NaN,NaN,,NaN,NaN,NaN,NaN,NaN,NaN,"",,NaN,4,0,4,0,1,3,200,0,200,0,1,199,,NaN,NaN,NaN,NaN,NaN,NaN,NaN,,NaN,,NaN,,NaN
NaN,NaN,NaN,NaN,NaN,"",NaN,NaN,"",NaN,NaN,1,1,44,3,44,87,83,0.05,0.1,0.15,0.15,44,87,83,0.05,0.1,0.15,0,2,0,0,0,0,3203,73,N/A,0,0,44,3203,73,127,0,,NaN,NaN,NaN,NaN,NaN,NaN,7,1,2020-11-10_09h25.37.286,Pirates_expt3,2020.1.2,Win32,60,NaN,NaN,NaN,NaN,NaN,NaN,NaN,,NaN,NaN,NaN,NaN,NaN,NaN,,NaN,NaN,NaN,NaN,NaN,NaN,"",,NaN,4,0,4,0,1,3,200,0,200,0,1,199,k,1.19967,NaN,NaN,NaN,NaN,NaN,NaN,,NaN,,NaN,,NaN
NaN,NaN,NaN,NaN,NaN,"",NaN,NaN,"",NaN,NaN,1,1,43,3,44,87,83,0.05,0.1,0.15,0.15,44,87,83,0.05,0.1,0.15,2,3,0,0,83,83,3203,73,space,0.538215,0,43,3203,73,127,0,,NaN,NaN,NaN,NaN,NaN,NaN,7,1,2020-11-10_09h25.37.286,Pirates_expt3,2020.1.2,Win32,60,NaN,NaN,NaN,NaN,NaN,NaN,NaN,,NaN,NaN,NaN,NaN,NaN,NaN,,NaN,NaN,NaN,NaN,NaN,NaN,"",,NaN,4,0,4,0,1,3,200,0,200,0,1,199,,NaN,200,0,200,0,1,199,,NaN,,NaN,,NaN
NaN,NaN,NaN,NaN,NaN,"",NaN,NaN,"",NaN,NaN,1,1,44,3,47,88,83,0.05,0.1,0.15,0.15,47,88,83,0.05,0.1,0.15,0,4,0,0,83,83,3287,74,0,0,0,44,3287,74,126,0,,NaN,NaN,NaN,NaN,NaN,NaN,7,1,2020-11-10_09h25.37.286,Pirates_expt3,2020.1.2,Win32,60,NaN,NaN,NaN,NaN,NaN,NaN,NaN,,NaN,NaN,NaN,NaN,NaN,NaN,,NaN,NaN,NaN,NaN,NaN,NaN,"",,NaN,4,0,4,0,1,3,200,0,200,0,1,199,,NaN,200,0,200,0,1,199,space,0.538215,,NaN,,NaN
NaN,NaN,NaN,NaN,NaN,"",NaN,NaN,"",NaN,NaN,NaN,NaN,NaN,NaN,NaN,NaN,NaN,NaN,NaN,NaN,NaN,NaN,NaN,NaN,NaN,NaN,NaN,NaN,NaN,,NaN,NaN,NaN,NaN,NaN,,NaN,NaN,NaN,NaN,NaN,NaN,NaN,,NaN,NaN,NaN,NaN,NaN,NaN,7,1,2020-11-10_09h25.37.286,Pirates_expt3,2020.1.2,Win32,60,NaN,NaN,NaN,NaN,NaN,NaN,NaN,,NaN,NaN,NaN,NaN,NaN,NaN,,NaN,NaN,NaN,NaN,NaN,NaN,"",,NaN,NaN,NaN,NaN,NaN,NaN,NaN,NaN,NaN,NaN,NaN,NaN,NaN,,NaN,0,0,0,0,1,NaN,,NaN,,NaN,,NaN
NaN,NaN,NaN,NaN,NaN,"",NaN,NaN,"",NaN,NaN,1,1,44,3,47,88,79,0.05,0.1,0.15,0.15,47,88,79,0.05,0.1,0.15,2,3,0,0,79,79,3287,74,space,0.21684,0,44,3287,74,126,0,,NaN,NaN,NaN,NaN,NaN,NaN,7,1,2020-11-10_09h25.37.286,Pirates_expt3,2020.1.2,Win32,60,NaN,NaN,NaN,NaN,NaN,NaN,NaN,,NaN,NaN,NaN,NaN,NaN,NaN,,NaN,NaN,NaN,NaN,NaN,NaN,"",,NaN,4,0,4,0,1,3,200,0,200,0,1,199,,NaN,200,0,200,0,1,199,,NaN,,NaN,,NaN
NaN,NaN,NaN,NaN,NaN,"",NaN,NaN,"",NaN,NaN,1,1,44,3,49,89,79,0.05,0.1,0.15,0.15,49,89,79,0.05,0.1,0.15,0,4,0,0,79,79,3367,75,0,0,0,44,3367,75,125,0,,NaN,NaN,NaN,NaN,NaN,NaN,7,1,2020-11-10_09h25.37.286,Pirates_expt3,2020.1.2,Win32,60,NaN,NaN,NaN,NaN,NaN,NaN,NaN,,NaN,NaN,NaN,NaN,NaN,NaN,,NaN,NaN,NaN,NaN,NaN,NaN,"",,NaN,4,0,4,0,1,3,200,0,200,0,1,199,,NaN,200,0,200,0,1,199,space,0.21684,,NaN,,NaN
NaN,NaN,NaN,NaN,NaN,"",NaN,NaN,"",NaN,NaN,NaN,NaN,NaN,NaN,NaN,NaN,NaN,NaN,NaN,NaN,NaN,NaN,NaN,NaN,NaN,NaN,NaN,NaN,NaN,,NaN,NaN,NaN,NaN,NaN,,NaN,NaN,NaN,NaN,NaN,NaN,NaN,,NaN,NaN,NaN,NaN,NaN,NaN,7,1,2020-11-10_09h25.37.286,Pirates_expt3,2020.1.2,Win32,60,NaN,NaN,NaN,NaN,NaN,NaN,NaN,,NaN,NaN,NaN,NaN,NaN,NaN,,NaN,NaN,NaN,NaN,NaN,NaN,"",,NaN,NaN,NaN,NaN,NaN,NaN,NaN,NaN,NaN,NaN,NaN,NaN,NaN,,NaN,1,0,1,0,1,NaN,,NaN,,NaN,,NaN
NaN,NaN,NaN,NaN,NaN,"",NaN,NaN,"",NaN,NaN,1,1,44,3,49,89,71,0.05,0.1,0.15,0.15,49,89,71,0.05,0.1,0.15,2,3,0,0,71,71,3367,75,space,1.06354,0,44,3367,75,125,0,,NaN,NaN,NaN,NaN,NaN,NaN,7,1,2020-11-10_09h25.37.286,Pirates_expt3,2020.1.2,Win32,60,NaN,NaN,NaN,NaN,NaN,NaN,NaN,,NaN,NaN,NaN,NaN,NaN,NaN,,NaN,NaN,NaN,NaN,NaN,NaN,"",,NaN,4,0,4,0,1,3,200,0,200,0,1,199,,NaN,200,0,200,0,1,199,,NaN,,NaN,,NaN
NaN,NaN,NaN,NaN,NaN,"",NaN,NaN,"",NaN,NaN,1,1,45,3,52,90,71,0.05,0.1,0.15,0.15,52,90,71,0.05,0.1,0.15,0,4,0,0,71,71,3439,76,0,0,0,45,3439,76,124,0,,NaN,NaN,NaN,NaN,NaN,NaN,7,1,2020-11-10_09h25.37.286,Pirates_expt3,2020.1.2,Win32,60,NaN,NaN,NaN,NaN,NaN,NaN,NaN,,NaN,NaN,NaN,NaN,NaN,NaN,,NaN,NaN,NaN,NaN,NaN,NaN,"",,NaN,4,0,4,0,1,3,200,0,200,0,1,199,,NaN,200,0,200,0,1,199,space,1.06354,,NaN,,NaN
NaN,NaN,NaN,NaN,NaN,"",NaN,NaN,"",NaN,NaN,NaN,NaN,NaN,NaN,NaN,NaN,NaN,NaN,NaN,NaN,NaN,NaN,NaN,NaN,NaN,NaN,NaN,NaN,NaN,,NaN,NaN,NaN,NaN,NaN,,NaN,NaN,NaN,NaN,NaN,NaN,NaN,,NaN,NaN,NaN,NaN,NaN,NaN,7,1,2020-11-10_09h25.37.286,Pirates_expt3,2020.1.2,Win32,60,NaN,NaN,NaN,NaN,NaN,NaN,NaN,,NaN,NaN,NaN,NaN,NaN,NaN,,NaN,NaN,NaN,NaN,NaN,NaN,"",,NaN,NaN,NaN,NaN,NaN,NaN,NaN,NaN,NaN,NaN,NaN,NaN,NaN,,NaN,2,0,2,0,1,NaN,,NaN,,NaN,,NaN
NaN,NaN,NaN,NaN,NaN,"",NaN,NaN,"",NaN,NaN,1,1,45,3,52,90,61,0.05,0.1,0.15,0.15,52,90,61,0.05,0.1,0.15,2,3,0,0,61,61,3439,76,space,0.13388,0,45,3439,76,124,0,,NaN,NaN,NaN,NaN,NaN,NaN,7,1,2020-11-10_09h25.37.286,Pirates_expt3,2020.1.2,Win32,60,NaN,NaN,NaN,NaN,NaN,NaN,NaN,,NaN,NaN,NaN,NaN,NaN,NaN,,NaN,NaN,NaN,NaN,NaN,NaN,"",,NaN,4,0,4,0,1,3,200,0,200,0,1,199,,NaN,200,0,200,0,1,199,,NaN,,NaN,,NaN
NaN,NaN,NaN,NaN,NaN,"",NaN,NaN,"",NaN,NaN,1,1,45,3,54,91,61,0.05,0.1,0.15,0.15,54,91,61,0.05,0.1,0.15,0,4,0,0,61,61,3500,77,0,0,0,45,3500,77,123,0,,NaN,NaN,NaN,NaN,NaN,NaN,7,1,2020-11-10_09h25.37.286,Pirates_expt3,2020.1.2,Win32,60,NaN,NaN,NaN,NaN,NaN,NaN,NaN,,NaN,NaN,NaN,NaN,NaN,NaN,,NaN,NaN,NaN,NaN,NaN,NaN,"",,NaN,4,0,4,0,1,3,200,0,200,0,1,199,,NaN,200,0,200,0,1,199,space,0.13388,,NaN,,NaN
NaN,NaN,NaN,NaN,NaN,"",NaN,NaN,"",NaN,NaN,NaN,NaN,NaN,NaN,NaN,NaN,NaN,NaN,NaN,NaN,NaN,NaN,NaN,NaN,NaN,NaN,NaN,NaN,NaN,,NaN,NaN,NaN,NaN,NaN,,NaN,NaN,NaN,NaN,NaN,NaN,NaN,,NaN,NaN,NaN,NaN,NaN,NaN,7,1,2020-11-10_09h25.37.286,Pirates_expt3,2020.1.2,Win32,60,NaN,NaN,NaN,NaN,NaN,NaN,NaN,,NaN,NaN,NaN,NaN,NaN,NaN,,NaN,NaN,NaN,NaN,NaN,NaN,"",,NaN,NaN,NaN,NaN,NaN,NaN,NaN,NaN,NaN,NaN,NaN,NaN,NaN,,NaN,3,0,3,0,1,NaN,,NaN,,NaN,,NaN
NaN,NaN,NaN,NaN,NaN,"",NaN,NaN,"",NaN,NaN,1,1,45,3,54,91,50,0.05,0.1,0.15,0.15,54,91,50,0.05,0.1,0.15,2,3,0,0,50,50,3500,77,space,0.017175,0,45,3500,77,123,0,,NaN,NaN,NaN,NaN,NaN,NaN,7,1,2020-11-10_09h25.37.286,Pirates_expt3,2020.1.2,Win32,60,NaN,NaN,NaN,NaN,NaN,NaN,NaN,,NaN,NaN,NaN,NaN,NaN,NaN,,NaN,NaN,NaN,NaN,NaN,NaN,"",,NaN,4,0,4,0,1,3,200,0,200,0,1,199,,NaN,200,0,200,0,1,199,,NaN,,NaN,,NaN
NaN,NaN,NaN,NaN,NaN,"",NaN,NaN,"",NaN,NaN,1,1,45,3,56,92,50,0.05,0.1,0.15,0.15,56,92,50,0.05,0.1,0.15,0,4,0,0,50,50,3550,78,0,0,0,45,3550,78,122,0,,NaN,NaN,NaN,NaN,NaN,NaN,7,1,2020-11-10_09h25.37.286,Pirates_expt3,2020.1.2,Win32,60,NaN,NaN,NaN,NaN,NaN,NaN,NaN,,NaN,NaN,NaN,NaN,NaN,NaN,,NaN,NaN,NaN,NaN,NaN,NaN,"",,NaN,4,0,4,0,1,3,200,0,200,0,1,199,,NaN,200,0,200,0,1,199,space,0.017175,,NaN,,NaN
NaN,NaN,NaN,NaN,NaN,"",NaN,NaN,"",NaN,NaN,NaN,NaN,NaN,NaN,NaN,NaN,NaN,NaN,NaN,NaN,NaN,NaN,NaN,NaN,NaN,NaN,NaN,NaN,NaN,,NaN,NaN,NaN,NaN,NaN,,NaN,NaN,NaN,NaN,NaN,NaN,NaN,,NaN,NaN,NaN,NaN,NaN,NaN,7,1,2020-11-10_09h25.37.286,Pirates_expt3,2020.1.2,Win32,60,NaN,NaN,NaN,NaN,NaN,NaN,NaN,,NaN,NaN,NaN,NaN,NaN,NaN,,NaN,NaN,NaN,NaN,NaN,NaN,"",,NaN,NaN,NaN,NaN,NaN,NaN,NaN,NaN,NaN,NaN,NaN,NaN,NaN,,NaN,4,0,4,0,1,NaN,,NaN,,NaN,,NaN
NaN,NaN,NaN,NaN,NaN,"",NaN,NaN,"",NaN,NaN,1,1,45,3,56,92,38,0.05,0.1,0.15,0.15,56,92,38,0.05,0.1,0.15,3,3,0,0,38,38,3550,78,s,0.18023,5,45,3550,78,122,0,,NaN,NaN,NaN,NaN,NaN,NaN,7,1,2020-11-10_09h25.37.286,Pirates_expt3,2020.1.2,Win32,60,NaN,NaN,NaN,NaN,NaN,NaN,NaN,,NaN,NaN,NaN,NaN,NaN,NaN,,NaN,NaN,NaN,NaN,NaN,NaN,"",,NaN,4,0,4,0,1,3,200,0,200,0,1,199,,NaN,200,0,200,0,1,199,,NaN,,NaN,,NaN
NaN,NaN,NaN,NaN,NaN,"",NaN,NaN,"",NaN,NaN,1,1,44,3,59,93,47,0.05,0.1,0.15,0.15,59,93,47,0.05,0.1,0.15,0,4,0,0,47,38,3550,79,0,0,0,44,3550,79,121,9.883,,NaN,NaN,NaN,NaN,NaN,NaN,7,1,2020-11-10_09h25.37.286,Pirates_expt3,2020.1.2,Win32,60,NaN,NaN,NaN,NaN,NaN,NaN,NaN,,NaN,NaN,NaN,NaN,NaN,NaN,,NaN,NaN,NaN,NaN,NaN,NaN,"",,NaN,4,0,4,0,1,3,200,0,200,0,1,199,,NaN,200,0,200,0,1,199,s,0.18023,,NaN,,NaN
NaN,NaN,NaN,NaN,NaN,"",NaN,NaN,"",NaN,NaN,NaN,NaN,NaN,NaN,NaN,NaN,NaN,NaN,NaN,NaN,NaN,NaN,NaN,NaN,NaN,NaN,NaN,NaN,NaN,,NaN,NaN,NaN,NaN,NaN,,NaN,NaN,NaN,NaN,NaN,NaN,NaN,,NaN,NaN,NaN,NaN,NaN,NaN,7,1,2020-11-10_09h25.37.286,Pirates_expt3,2020.1.2,Win32,60,NaN,NaN,NaN,NaN,NaN,NaN,NaN,,NaN,NaN,NaN,NaN,NaN,NaN,,NaN,NaN,NaN,NaN,NaN,NaN,"",,NaN,NaN,NaN,NaN,NaN,NaN,NaN,14,0,14,0,1,NaN,,NaN,NaN,NaN,NaN,NaN,NaN,NaN,,NaN,,NaN,,NaN
